"subjectid","responseid","block","trial","stimulus","colormap","Name_Length","LAB_Length","hasDecoy","distance","requestedDistance","correct","selection","responseTime","generationTime"
"291","18047","1","1","1","coolwarm","2.42","231.55","0","0","0","1","99","2912","140"
"291","18048","1","1","2","coolwarm","2.42","231.55","0","0","0","1","99","4142","72"
"291","18049","1","2","3","coolwarm","2.42","231.55","0","0","0","1","99","4349","56"
"291","18050","1","1","4","coolwarm","2.42","231.55","1","0.245802","0.24","1","3","2078","70"
"291","18051","1","1","5","coolwarm","2.42","231.55","1","0.214607","0.21","1","1","4180","101"
"291","18052","1","1","6","coolwarm","2.42","231.55","1","0.238787","0.23","1","1","5334","145"
"291","18053","1","1","7","coolwarm","2.42","231.55","1","0.257586","0.26","0","99","6534","158"
"291","18054","1","3","8","coolwarm","2.42","231.55","0","0","0","1","99","3524","62"
"291","18055","1","4","9","coolwarm","2.42","231.55","0","0","0","1","99","6181","51"
"291","18056","1","5","10","coolwarm","2.42","231.55","0","0","0","1","99","3614","63"
"291","18057","1","2","11","coolwarm","2.42","231.55","1","0.217341","0.21","0","99","3277","119"
"291","18058","1","6","12","coolwarm","2.42","231.55","0","0","0","1","99","4349","56"
"291","18059","1","7","13","coolwarm","2.42","231.55","0","0","0","1","99","5271","56"
"291","18060","1","2","14","coolwarm","2.42","231.55","1","0.2347","0.24","1","2","2764","467"
"291","18061","1","2","15","coolwarm","2.42","231.55","1","0.2561","0.26","1","4","3191","128"
"291","18062","1","8","16","coolwarm","2.42","231.55","0","0","0","1","99","2541","55"
"291","18063","1","3","17","coolwarm","2.42","231.55","1","0.201839","0.21","1","3","7108","395"
"291","18064","1","2","18","coolwarm","2.42","231.55","0","0","0","1","99","3356","56"
"291","18065","1","2","19","coolwarm","2.42","231.55","1","0.233071","0.23","1","2","3902","51"
"291","18066","1","9","20","coolwarm","2.42","231.55","0","0","0","1","99","2373","55"
"291","18067","1","3","21","coolwarm","2.42","231.55","1","0.267836","0.26","0","99","5349","147"
"291","18068","1","3","22","coolwarm","2.42","231.55","1","0.220638","0.23","0","99","3630","216"
"291","18069","1","3","23","coolwarm","2.42","231.55","1","0.237397","0.24","0","99","3630","198"
"291","18070","1","10","24","coolwarm","2.42","231.55","0","0","0","1","99","2597","49"
"291","18071","2","1","25","blues","1.2","109.44","1","0.221725","0.23","1","4","4576","304"
"291","18072","2","1","26","blues","1.2","109.44","1","0.208567","0.21","1","1","6566","57"
"291","18073","2","1","27","blues","1.2","109.44","0","0","0","1","99","2590","57"
"291","18074","2","1","28","blues","1.2","109.44","0","0","0","1","99","4734","58"
"291","18075","2","2","29","blues","1.2","109.44","0","0","0","1","99","2374","57"
"291","18076","2","2","30","blues","1.2","109.44","1","0.225253","0.23","0","99","3926","56"
"291","18077","2","3","31","blues","1.2","109.44","0","0","0","1","99","4190","67"
"291","18078","2","4","32","blues","1.2","109.44","0","0","0","1","99","2718","57"
"291","18079","2","5","33","blues","1.2","109.44","0","0","0","1","99","4110","56"
"291","18080","2","6","34","blues","1.2","109.44","0","0","0","1","99","3486","52"
"291","18081","2","7","35","blues","1.2","109.44","0","0","0","1","99","3733","48"
"291","18082","2","8","36","blues","1.2","109.44","0","0","0","1","99","2646","50"
"291","18083","2","3","37","blues","1.2","109.44","1","0.223404","0.23","0","2","6750","206"
"291","18084","2","9","38","blues","1.2","109.44","0","0","0","1","99","3622","57"
"291","18085","2","1","39","blues","1.2","109.44","1","0.258272","0.26","0","99","4541","201"
"291","18086","2","1","40","blues","1.2","109.44","1","0.248225","0.24","0","99","3590","112"
"291","18087","2","2","41","blues","1.2","109.44","1","0.203652","0.21","0","99","2909","57"
"291","18088","2","2","42","blues","1.2","109.44","1","0.269274","0.26","0","99","4077","76"
"291","18089","2","2","43","blues","1.2","109.44","1","0.241411","0.24","0","99","2990","247"
"291","18090","2","3","44","blues","1.2","109.44","1","0.253758","0.26","0","99","5126","98"
"291","18091","2","3","45","blues","1.2","109.44","1","0.210123","0.21","0","99","5405","65"
"291","18092","2","2","46","blues","1.2","109.44","0","0","0","1","99","5566","65"
"291","18093","2","3","47","blues","1.2","109.44","1","0.243426","0.24","1","1","3261","243"
"291","18094","2","10","48","blues","1.2","109.44","0","0","0","1","99","3405","56"
"291","18095","3","1","49","viridis","2.75","217.31","1","0.22045","0.23","1","2","4925","69"
"291","18096","3","1","50","viridis","2.75","217.31","0","0","0","1","99","2541","56"
"291","18097","3","1","51","viridis","2.75","217.31","1","0.262653","0.26","1","3","7430","101"
"291","18098","3","1","52","viridis","2.75","217.31","1","0.241054","0.24","1","4","4851","251"
"291","18099","3","2","53","viridis","2.75","217.31","0","0","0","1","99","2852","55"
"291","18100","3","3","54","viridis","2.75","217.31","0","0","0","1","99","4877","54"
"291","18101","3","4","55","viridis","2.75","217.31","0","0","0","1","99","2590","49"
"291","18102","3","2","56","viridis","2.75","217.31","1","0.252646","0.26","0","99","3862","65"
"291","18103","3","1","57","viridis","2.75","217.31","0","0","0","1","99","1981","63"
"291","18104","3","5","58","viridis","2.75","217.31","0","0","0","1","99","3645","56"
"291","18105","3","2","59","viridis","2.75","217.31","1","0.238838","0.23","0","99","3221","160"
"291","18106","3","1","60","viridis","2.75","217.31","1","0.200829","0.21","0","99","4262","139"
"291","18107","3","6","61","viridis","2.75","217.31","0","0","0","0","1","5206","56"
"291","18108","3","2","62","viridis","2.75","217.31","1","0.206076","0.21","1","2","5072","296"
"291","18109","3","3","63","viridis","2.75","217.31","1","0.220754","0.23","0","4","7871","118"
"291","18110","3","7","64","viridis","2.75","217.31","0","0","0","1","99","6821","65"
"291","18111","3","2","65","viridis","2.75","217.31","1","0.240159","0.24","0","4","2678","64"
"291","18112","3","8","66","viridis","2.75","217.31","0","0","0","1","99","4255","56"
"291","18113","3","9","67","viridis","2.75","217.31","0","0","0","1","99","3789","54"
"291","18114","3","3","68","viridis","2.75","217.31","1","0.230742","0.24","1","1","2725","200"
"291","18115","3","2","69","viridis","2.75","217.31","0","0","0","1","99","3558","64"
"291","18116","3","3","70","viridis","2.75","217.31","1","0.2128","0.21","1","2","8023","345"
"291","18117","3","10","71","viridis","2.75","217.31","0","0","0","1","99","4974","49"
"291","18118","3","3","72","viridis","2.75","217.31","1","0.26713","0.26","1","2","3148","56"
"291","18119","4","1","73","rainbowcie","4.6","453.83","1","0.230593","0.23","1","2","6069","412"
"291","18120","4","1","74","rainbowcie","4.6","453.83","1","0.212594","0.21","1","4","2301","209"
"291","18121","4","1","75","rainbowcie","4.6","453.83","0","0","0","1","99","1485","49"
"291","18122","4","1","76","rainbowcie","4.6","453.83","0","0","0","1","99","8413","62"
"291","18123","4","2","77","rainbowcie","4.6","453.83","0","0","0","1","99","3070","56"
"291","18124","4","2","78","rainbowcie","4.6","453.83","1","0.224771","0.23","0","99","3318","305"
"291","18125","4","1","79","rainbowcie","4.6","453.83","1","0.26499","0.26","1","2","5054","84"
"291","18126","4","3","80","rainbowcie","4.6","453.83","0","0","0","1","99","1997","57"
"291","18127","4","1","81","rainbowcie","4.6","453.83","1","0.248288","0.24","1","1","3061","243"
"291","18128","4","4","82","rainbowcie","4.6","453.83","0","0","0","1","99","2430","56"
"291","18129","4","5","83","rainbowcie","4.6","453.83","0","0","0","1","99","3654","65"
"291","18130","4","6","84","rainbowcie","4.6","453.83","0","0","0","1","99","3135","57"
"291","18131","4","7","85","rainbowcie","4.6","453.83","0","0","0","1","99","4421","62"
"291","18132","4","8","86","rainbowcie","4.6","453.83","0","0","0","1","99","3478","57"
"291","18133","4","9","87","rainbowcie","4.6","453.83","0","0","0","1","99","4062","48"
"291","18134","4","2","88","rainbowcie","4.6","453.83","1","0.203435","0.21","0","99","6110","86"
"291","18135","4","10","89","rainbowcie","4.6","453.83","0","0","0","1","99","3324","49"
"291","18136","4","2","90","rainbowcie","4.6","453.83","1","0.263063","0.26","1","4","3229","56"
"291","18137","4","3","91","rainbowcie","4.6","453.83","1","0.250279","0.26","1","2","3005","194"
"291","18138","4","2","92","rainbowcie","4.6","453.83","1","0.241493","0.24","1","3","3433","292"
"291","18139","4","3","93","rainbowcie","4.6","453.83","1","0.207692","0.21","0","99","8188","111"
"291","18140","4","3","94","rainbowcie","4.6","453.83","1","0.233506","0.23","1","2","5975","124"
"291","18141","4","3","95","rainbowcie","4.6","453.83","1","0.231717","0.24","1","3","3839","133"
"291","18142","4","11","96","rainbowcie","4.6","453.83","0","0","0","1","99","2068","64"
"295","18143","1","1","1","coolwarm","2.42","231.55","0","0","0","1","99","5473","266"
"295","18144","1","1","2","coolwarm","2.42","231.55","1","0.226615","0.23","1","4","2998","175"
"295","18145","1","2","3","coolwarm","2.42","231.55","0","0","0","0","3","3656","77"
"295","18146","1","2","4","coolwarm","2.42","231.55","1","0.224888","0.23","0","99","3401","101"
"295","18147","1","3","5","coolwarm","2.42","231.55","0","0","0","1","99","4664","61"
"295","18148","1","1","6","coolwarm","2.42","231.55","1","0.20705","0.21","1","1","4435","281"
"295","18149","1","4","7","coolwarm","2.42","231.55","0","0","0","1","99","3759","94"
"295","18150","1","5","8","coolwarm","2.42","231.55","0","0","0","1","99","4968","81"
"295","18151","1","6","9","coolwarm","2.42","231.55","0","0","0","0","4","6420","69"
"295","18152","1","1","10","coolwarm","2.42","231.55","1","0.242545","0.24","1","2","3318","92"
"295","18153","1","7","11","coolwarm","2.42","231.55","0","0","0","1","99","4589","59"
"295","18154","1","8","12","coolwarm","2.42","231.55","0","0","0","1","99","4909","96"
"295","18155","1","2","13","coolwarm","2.42","231.55","1","0.248633","0.24","1","3","4645","211"
"295","18156","1","3","14","coolwarm","2.42","231.55","1","0.24792","0.24","1","2","10392","427"
"295","18157","1","9","15","coolwarm","2.42","231.55","0","0","0","0","3","10936","79"
"295","18158","1","2","16","coolwarm","2.42","231.55","1","0.207227","0.21","0","99","4170","101"
"295","18159","1","3","17","coolwarm","2.42","231.55","1","0.219789","0.21","1","2","6555","182"
"295","18160","1","1","18","coolwarm","2.42","231.55","1","0.26976","0.26","1","2","4827","529"
"295","18161","1","2","19","coolwarm","2.42","231.55","1","0.256089","0.26","1","2","6436","361"
"295","18162","1","3","20","coolwarm","2.42","231.55","1","0.254337","0.26","0","99","10096","290"
"295","18163","1","1","21","coolwarm","2.42","231.55","0","0","0","1","99","4207","73"
"295","18164","1","10","22","coolwarm","2.42","231.55","0","0","0","1","99","3369","69"
"295","18165","1","11","23","coolwarm","2.42","231.55","0","0","0","1","99","4733","62"
"295","18166","1","3","24","coolwarm","2.42","231.55","1","0.234528","0.23","1","4","5704","71"
"295","18167","2","1","25","rainbowcie","4.6","453.83","1","0.242881","0.24","1","1","8126","71"
"295","18168","2","1","26","rainbowcie","4.6","453.83","1","0.255757","0.26","1","4","3003","180"
"295","18169","2","1","27","rainbowcie","4.6","453.83","1","0.227296","0.23","1","2","2752","437"
"295","18170","2","1","28","rainbowcie","4.6","453.83","0","0","0","1","99","4282","77"
"295","18171","2","2","29","rainbowcie","4.6","453.83","0","0","0","1","99","4447","74"
"295","18172","2","3","30","rainbowcie","4.6","453.83","0","0","0","1","99","3808","68"
"295","18173","2","4","31","rainbowcie","4.6","453.83","0","0","0","1","99","6414","67"
"295","18174","2","5","32","rainbowcie","4.6","453.83","0","0","0","1","99","6658","79"
"295","18175","2","2","33","rainbowcie","4.6","453.83","1","0.264398","0.26","1","4","3689","430"
"295","18176","2","6","34","rainbowcie","4.6","453.83","0","0","0","1","99","7011","77"
"295","18177","2","2","35","rainbowcie","4.6","453.83","1","0.245226","0.24","1","4","1876","211"
"295","18178","2","3","36","rainbowcie","4.6","453.83","1","0.249146","0.24","1","3","3690","214"
"295","18179","2","7","37","rainbowcie","4.6","453.83","0","0","0","1","99","3745","77"
"295","18180","2","1","38","rainbowcie","4.6","453.83","0","0","0","1","99","4335","88"
"295","18181","2","8","39","rainbowcie","4.6","453.83","0","0","0","1","99","2677","77"
"295","18182","2","1","40","rainbowcie","4.6","453.83","1","0.211908","0.21","1","1","2851","347"
"295","18183","2","9","41","rainbowcie","4.6","453.83","0","0","0","1","99","5685","68"
"295","18184","2","2","42","rainbowcie","4.6","453.83","1","0.213307","0.21","0","99","4640","348"
"295","18185","2","10","43","rainbowcie","4.6","453.83","0","0","0","1","99","6608","73"
"295","18186","2","3","44","rainbowcie","4.6","453.83","1","0.217717","0.21","1","3","2635","81"
"295","18187","2","2","45","rainbowcie","4.6","453.83","1","0.225369","0.23","0","99","4749","74"
"295","18188","2","3","46","rainbowcie","4.6","453.83","1","0.26272","0.26","1","1","5984","304"
"295","18189","2","3","47","rainbowcie","4.6","453.83","1","0.222571","0.23","0","99","6985","113"
"295","18190","2","11","48","rainbowcie","4.6","453.83","0","0","0","1","99","4138","73"
"295","18191","3","1","49","blues","1.2","109.44","1","0.216602","0.21","0","99","4459","194"
"295","18192","3","1","50","blues","1.2","109.44","0","0","0","1","99","3686","62"
"295","18193","3","1","51","blues","1.2","109.44","0","0","0","1","99","2914","65"
"295","18194","3","2","52","blues","1.2","109.44","0","0","0","1","99","3498","61"
"295","18195","3","3","53","blues","1.2","109.44","0","0","0","1","99","4907","80"
"295","18196","3","1","54","blues","1.2","109.44","1","0.232571","0.24","0","99","5452","79"
"295","18197","3","2","55","blues","1.2","109.44","1","0.231253","0.24","1","1","3148","106"
"295","18198","3","3","56","blues","1.2","109.44","1","0.23476","0.24","0","99","7856","473"
"295","18199","3","1","57","blues","1.2","109.44","1","0.234517","0.23","1","2","5960","150"
"295","18200","3","1","58","blues","1.2","109.44","1","0.262166","0.26","0","99","5524","187"
"295","18201","3","2","59","blues","1.2","109.44","1","0.26678","0.26","1","4","3633","252"
"295","18202","3","4","60","blues","1.2","109.44","0","0","0","1","99","8004","73"
"295","18203","3","5","61","blues","1.2","109.44","0","0","0","1","99","3885","78"
"295","18204","3","6","62","blues","1.2","109.44","0","0","0","1","99","5552","79"
"295","18205","3","7","63","blues","1.2","109.44","0","0","0","1","99","6721","66"
"295","18206","3","2","64","blues","1.2","109.44","1","0.207279","0.21","1","3","5405","379"
"295","18207","3","8","65","blues","1.2","109.44","0","0","0","1","99","33239","61"
"295","18208","3","2","66","blues","1.2","109.44","1","0.236529","0.23","1","4","8874","340"
"295","18209","3","3","67","blues","1.2","109.44","1","0.23845","0.23","1","4","5602","80"
"295","18210","3","3","68","blues","1.2","109.44","1","0.250176","0.26","0","99","4610","525"
"295","18211","3","9","69","blues","1.2","109.44","0","0","0","1","99","6240","60"
"295","18212","3","10","70","blues","1.2","109.44","0","0","0","1","99","4635","59"
"295","18213","3","11","71","blues","1.2","109.44","0","0","0","0","3","7885","72"
"295","18214","3","3","72","blues","1.2","109.44","1","0.20977","0.21","1","1","6701","266"
"295","18215","4","1","73","viridis","2.75","217.31","1","0.238531","0.24","0","1","8957","178"
"295","18216","4","1","74","viridis","2.75","217.31","1","0.202609","0.21","0","99","13933","168"
"295","18217","4","1","75","viridis","2.75","217.31","0","0","0","0","3","5136","60"
"295","18218","4","1","76","viridis","2.75","217.31","1","0.238961","0.23","1","1","6738","62"
"295","18219","4","1","77","viridis","2.75","217.31","1","0.267831","0.26","0","99","4070","847"
"295","18220","4","2","78","viridis","2.75","217.31","1","0.235726","0.23","0","99","6622","295"
"295","18221","4","2","79","viridis","2.75","217.31","1","0.254978","0.26","1","1","4004","97"
"295","18222","4","2","80","viridis","2.75","217.31","0","0","0","1","99","5564","60"
"295","18223","4","2","81","viridis","2.75","217.31","1","0.235652","0.24","1","2","7020","294"
"295","18224","4","3","82","viridis","2.75","217.31","0","0","0","1","99","5404","70"
"295","18225","4","4","83","viridis","2.75","217.31","0","0","0","1","99","4188","58"
"295","18226","4","3","84","viridis","2.75","217.31","1","0.238146","0.23","1","1","13133","69"
"295","18227","4","5","85","viridis","2.75","217.31","0","0","0","1","99","9183","72"
"295","18228","4","6","86","viridis","2.75","217.31","0","0","0","0","3","5181","78"
"295","18229","4","7","87","viridis","2.75","217.31","0","0","0","1","99","4054","78"
"295","18230","4","2","88","viridis","2.75","217.31","1","0.211032","0.21","1","1","2355","217"
"295","18231","4","3","89","viridis","2.75","217.31","1","0.216347","0.21","1","1","2598","60"
"295","18232","4","3","90","viridis","2.75","217.31","1","0.238703","0.24","1","3","6010","164"
"295","18233","4","8","91","viridis","2.75","217.31","0","0","0","1","99","4903","72"
"295","18234","4","9","92","viridis","2.75","217.31","0","0","0","1","99","4437","73"
"295","18235","4","3","93","viridis","2.75","217.31","1","0.250494","0.26","1","3","3073","71"
"295","18236","4","10","94","viridis","2.75","217.31","0","0","0","1","99","3720","72"
"295","18237","4","11","95","viridis","2.75","217.31","0","0","0","1","99","3018","86"
"295","18238","4","12","96","viridis","2.75","217.31","0","0","0","0","2","9466","60"
"293","18239","1","1","1","rainbowcie","4.6","453.83","0","0","0","0","1","11521","246"
"293","18240","1","2","2","rainbowcie","4.6","453.83","0","0","0","1","99","15060","45"
"293","18241","1","1","3","rainbowcie","4.6","453.83","1","0.205484","0.21","0","99","11413","250"
"293","18242","1","1","4","rainbowcie","4.6","453.83","1","0.239131","0.24","1","4","3900","137"
"293","18243","1","2","5","rainbowcie","4.6","453.83","1","0.215032","0.21","1","3","11814","82"
"293","18244","1","3","6","rainbowcie","4.6","453.83","0","0","0","0","3","30260","54"
"293","18245","1","4","7","rainbowcie","4.6","453.83","0","0","0","1","99","10812","62"
"293","18246","1","5","8","rainbowcie","4.6","453.83","0","0","0","1","99","26381","54"
"293","18247","1","1","9","rainbowcie","4.6","453.83","0","0","0","1","99","14529","54"
"293","18248","1","1","10","rainbowcie","4.6","453.83","1","0.269432","0.26","1","3","19235","613"
"293","18249","1","1","11","rainbowcie","4.6","453.83","1","0.220163","0.23","1","1","5506","114"
"293","18250","1","6","12","rainbowcie","4.6","453.83","0","0","0","1","99","18132","53"
"293","18251","1","2","13","rainbowcie","4.6","453.83","1","0.236444","0.24","1","3","2972","224"
"293","18252","1","7","14","rainbowcie","4.6","453.83","0","0","0","1","99","4736","55"
"293","18253","1","8","15","rainbowcie","4.6","453.83","0","0","0","1","99","18527","48"
"293","18254","1","3","16","rainbowcie","4.6","453.83","1","0.248326","0.24","1","2","6205","100"
"293","18255","1","2","17","rainbowcie","4.6","453.83","1","0.256249","0.26","0","99","11378","61"
"293","18256","1","2","18","rainbowcie","4.6","453.83","0","0","0","1","99","5085","54"
"293","18257","1","2","19","rainbowcie","4.6","453.83","1","0.236407","0.23","0","99","21018","121"
"293","18258","1","9","20","rainbowcie","4.6","453.83","0","0","0","1","99","14257","48"
"293","18259","1","3","21","rainbowcie","4.6","453.83","1","0.219788","0.21","1","3","7013","83"
"293","18260","1","10","22","rainbowcie","4.6","453.83","0","0","0","1","99","3560","47"
"293","18261","1","3","23","rainbowcie","4.6","453.83","1","0.234661","0.23","1","4","7608","54"
"293","18262","1","3","24","rainbowcie","4.6","453.83","1","0.261566","0.26","1","4","1889","225"
"293","18263","2","1","25","coolwarm","2.42","231.55","1","0.215997","0.21","1","3","3975","106"
"293","18264","2","1","26","coolwarm","2.42","231.55","1","0.266189","0.26","1","4","3515","92"
"293","18265","2","1","27","coolwarm","2.42","231.55","0","0","0","1","99","76167","62"
"293","18266","2","1","28","coolwarm","2.42","231.55","1","0.243829","0.24","1","2","4506","221"
"293","18267","2","1","29","coolwarm","2.42","231.55","1","0.222991","0.23","1","4","7599","125"
"293","18268","2","2","30","coolwarm","2.42","231.55","0","0","0","1","99","11330","54"
"293","18269","2","2","31","coolwarm","2.42","231.55","1","0.229867","0.23","1","1","3080","178"
"293","18270","2","3","32","coolwarm","2.42","231.55","0","0","0","0","1","10950","53"
"293","18271","2","2","33","coolwarm","2.42","231.55","1","0.207386","0.21","1","2","7493","133"
"293","18272","2","4","34","coolwarm","2.42","231.55","0","0","0","1","99","20947","48"
"293","18273","2","1","35","coolwarm","2.42","231.55","0","0","0","1","99","4555","54"
"293","18274","2","5","36","coolwarm","2.42","231.55","0","0","0","1","99","20090","47"
"293","18275","2","6","37","coolwarm","2.42","231.55","0","0","0","1","99","4159","47"
"293","18276","2","2","38","coolwarm","2.42","231.55","1","0.264082","0.26","1","2","6238","132"
"293","18277","2","7","39","coolwarm","2.42","231.55","0","0","0","1","99","5621","54"
"293","18278","2","3","40","coolwarm","2.42","231.55","1","0.234568","0.23","1","1","2131","80"
"293","18279","2","2","41","coolwarm","2.42","231.55","1","0.234554","0.24","1","4","4940","127"
"293","18280","2","3","42","coolwarm","2.42","231.55","1","0.247958","0.24","1","3","7475","88"
"293","18281","2","3","43","coolwarm","2.42","231.55","1","0.215586","0.21","1","1","1922","315"
"293","18282","2","8","44","coolwarm","2.42","231.55","0","0","0","1","99","2967","53"
"293","18283","2","2","45","coolwarm","2.42","231.55","0","0","0","0","2","14414","54"
"293","18284","2","9","46","coolwarm","2.42","231.55","0","0","0","1","99","2925","47"
"293","18285","2","3","47","coolwarm","2.42","231.55","1","0.268264","0.26","1","1","4302","355"
"293","18286","2","10","48","coolwarm","2.42","231.55","0","0","0","1","99","3423","54"
"293","18287","3","1","49","viridis","2.75","217.31","0","0","0","1","99","11116","44"
"293","18288","3","2","50","viridis","2.75","217.31","0","0","0","1","99","3320","57"
"293","18289","3","1","51","viridis","2.75","217.31","1","0.231447","0.24","0","99","12685","113"
"293","18290","3","3","52","viridis","2.75","217.31","0","0","0","1","99","4943","47"
"293","18291","3","4","53","viridis","2.75","217.31","0","0","0","1","99","11064","61"
"293","18292","3","1","54","viridis","2.75","217.31","1","0.217548","0.21","1","1","2035","62"
"293","18293","3","5","55","viridis","2.75","217.31","0","0","0","1","99","4338","61"
"293","18294","3","6","56","viridis","2.75","217.31","0","0","0","0","2","3498","60"
"293","18295","3","1","57","viridis","2.75","217.31","1","0.232972","0.23","0","2","9494","223"
"293","18296","3","1","58","viridis","2.75","217.31","1","0.264627","0.26","0","99","17197","254"
"293","18297","3","2","59","viridis","2.75","217.31","1","0.212545","0.21","0","99","17379","421"
"293","18298","3","2","60","viridis","2.75","217.31","1","0.23912","0.24","1","4","4287","139"
"293","18299","3","7","61","viridis","2.75","217.31","0","0","0","1","99","7432","54"
"293","18300","3","2","62","viridis","2.75","217.31","1","0.220833","0.23","0","99","7566","54"
"293","18301","3","8","63","viridis","2.75","217.31","0","0","0","1","99","6787","53"
"293","18302","3","9","64","viridis","2.75","217.31","0","0","0","1","99","8385","47"
"293","18303","3","10","65","viridis","2.75","217.31","0","0","0","1","99","19581","53"
"293","18304","3","2","66","viridis","2.75","217.31","1","0.269097","0.26","1","3","13021","81"
"293","18305","3","3","67","viridis","2.75","217.31","1","0.234363","0.23","1","3","7708","146"
"293","18306","3","3","68","viridis","2.75","217.31","1","0.214085","0.21","0","99","4748","172"
"293","18307","3","3","69","viridis","2.75","217.31","1","0.245855","0.24","1","4","2375","150"
"293","18308","3","11","70","viridis","2.75","217.31","0","0","0","1","99","7744","46"
"293","18309","3","12","71","viridis","2.75","217.31","0","0","0","1","99","3189","53"
"293","18310","3","3","72","viridis","2.75","217.31","1","0.265613","0.26","0","99","12961","114"
"293","18311","4","1","73","blues","1.2","109.44","1","0.257422","0.26","0","99","7916","402"
"293","18312","4","1","74","blues","1.2","109.44","0","0","0","1","99","7561","47"
"293","18313","4","1","75","blues","1.2","109.44","1","0.22144","0.23","1","2","9131","269"
"293","18314","4","2","76","blues","1.2","109.44","1","0.254697","0.26","1","2","8252","223"
"293","18315","4","2","77","blues","1.2","109.44","0","0","0","1","99","9139","47"
"293","18316","4","3","78","blues","1.2","109.44","1","0.268466","0.26","0","99","4448","94"
"293","18317","4","2","79","blues","1.2","109.44","1","0.239269","0.23","0","99","13797","188"
"293","18318","4","3","80","blues","1.2","109.44","0","0","0","1","99","5715","54"
"293","18319","4","1","81","blues","1.2","109.44","0","0","0","1","99","3506","46"
"293","18320","4","1","82","blues","1.2","109.44","1","0.232037","0.24","0","99","12938","163"
"293","18321","4","2","83","blues","1.2","109.44","1","0.239999","0.24","0","99","6855","203"
"293","18322","4","1","84","blues","1.2","109.44","1","0.208766","0.21","1","4","3244","130"
"293","18323","4","4","85","blues","1.2","109.44","0","0","0","1","99","4224","53"
"293","18324","4","5","86","blues","1.2","109.44","0","0","0","1","99","8722","55"
"293","18325","4","3","87","blues","1.2","109.44","1","0.220319","0.23","0","99","18270","230"
"293","18326","4","3","88","blues","1.2","109.44","1","0.245517","0.24","1","3","7220","382"
"293","18327","4","2","89","blues","1.2","109.44","1","0.206621","0.21","0","99","3271","60"
"293","18328","4","3","90","blues","1.2","109.44","1","0.201424","0.21","0","99","8846","124"
"293","18329","4","6","91","blues","1.2","109.44","0","0","0","1","99","3556","53"
"293","18330","4","7","92","blues","1.2","109.44","0","0","0","1","99","1961","53"
"293","18331","4","8","93","blues","1.2","109.44","0","0","0","1","99","1943","61"
"293","18332","4","9","94","blues","1.2","109.44","0","0","0","1","99","3641","54"
"293","18333","4","10","95","blues","1.2","109.44","0","0","0","1","99","4309","53"
"293","18334","4","11","96","blues","1.2","109.44","0","0","0","1","99","3692","54"
"296","18335","1","1","1","coolwarm","2.42","231.55","1","0.252593","0.26","1","3","6275","969"
"296","18336","1","1","2","coolwarm","2.42","231.55","1","0.216341","0.21","1","1","2978","148"
"296","18337","1","1","3","coolwarm","2.42","231.55","0","0","0","1","99","4436","109"
"296","18338","1","2","4","coolwarm","2.42","231.55","0","0","0","1","99","7268","106"
"296","18339","1","3","5","coolwarm","2.42","231.55","0","0","0","1","99","5607","120"
"296","18340","1","4","6","coolwarm","2.42","231.55","0","0","0","1","99","3827","175"
"296","18341","1","5","7","coolwarm","2.42","231.55","0","0","0","1","99","10949","114"
"296","18342","1","1","8","coolwarm","2.42","231.55","1","0.237986","0.24","1","1","7287","270"
"296","18343","1","2","9","coolwarm","2.42","231.55","1","0.217972","0.21","1","4","3575","253"
"296","18344","1","6","10","coolwarm","2.42","231.55","0","0","0","0","3","4914","107"
"296","18345","1","1","11","coolwarm","2.42","231.55","0","0","0","0","2","9651","92"
"296","18346","1","7","12","coolwarm","2.42","231.55","0","0","0","1","99","5588","110"
"296","18347","1","8","13","coolwarm","2.42","231.55","0","0","0","1","99","7724","123"
"296","18348","1","1","14","coolwarm","2.42","231.55","1","0.232012","0.23","0","99","7872","335"
"296","18349","1","2","15","coolwarm","2.42","231.55","1","0.261057","0.26","1","4","1973","251"
"296","18350","1","9","16","coolwarm","2.42","231.55","0","0","0","1","99","3712","79"
"296","18351","1","2","17","coolwarm","2.42","231.55","1","0.233178","0.23","1","2","3907","96"
"296","18352","1","10","18","coolwarm","2.42","231.55","0","0","0","0","1","21930","126"
"296","18353","1","3","19","coolwarm","2.42","231.55","1","0.234279","0.23","1","1","3709","103"
"296","18354","1","2","20","coolwarm","2.42","231.55","1","0.24914","0.24","1","4","3900","266"
"296","18355","1","3","21","coolwarm","2.42","231.55","1","0.257293","0.26","1","3","8446","169"
"296","18356","1","3","22","coolwarm","2.42","231.55","1","0.213765","0.21","0","99","8610","191"
"296","18357","1","11","23","coolwarm","2.42","231.55","0","0","0","1","99","4399","80"
"296","18358","1","3","24","coolwarm","2.42","231.55","1","0.236598","0.24","1","3","7315","96"
"296","18359","2","1","25","rainbowcie","4.6","453.83","0","0","0","1","99","4639","84"
"296","18360","2","2","26","rainbowcie","4.6","453.83","0","0","0","1","99","6445","126"
"296","18361","2","1","27","rainbowcie","4.6","453.83","1","0.257756","0.26","1","3","3781","249"
"296","18362","2","3","28","rainbowcie","4.6","453.83","0","0","0","1","99","9676","88"
"296","18363","2","4","29","rainbowcie","4.6","453.83","0","0","0","0","3","12048","76"
"296","18364","2","5","30","rainbowcie","4.6","453.83","0","0","0","1","99","6821","86"
"296","18365","2","1","31","rainbowcie","4.6","453.83","1","0.217207","0.21","0","99","14829","95"
"296","18366","2","1","32","rainbowcie","4.6","453.83","1","0.244651","0.24","0","1","6504","566"
"296","18367","2","2","33","rainbowcie","4.6","453.83","1","0.267554","0.26","1","4","2167","825"
"296","18368","2","6","34","rainbowcie","4.6","453.83","0","0","0","0","3","15435","124"
"296","18369","2","3","35","rainbowcie","4.6","453.83","1","0.255578","0.26","1","2","3300","378"
"296","18370","2","1","36","rainbowcie","4.6","453.83","1","0.224096","0.23","1","3","6378","317"
"296","18371","2","7","37","rainbowcie","4.6","453.83","0","0","0","1","99","5664","89"
"296","18372","2","1","38","rainbowcie","4.6","453.83","0","0","0","0","2","9332","98"
"296","18373","2","2","39","rainbowcie","4.6","453.83","1","0.23431","0.23","1","4","3678","115"
"296","18374","2","3","40","rainbowcie","4.6","453.83","1","0.220046","0.23","0","99","10615","140"
"296","18375","2","2","41","rainbowcie","4.6","453.83","1","0.239719","0.24","1","4","8152","303"
"296","18376","2","2","42","rainbowcie","4.6","453.83","1","0.212348","0.21","1","1","5241","214"
"296","18377","2","8","43","rainbowcie","4.6","453.83","0","0","0","0","3","6548","80"
"296","18378","2","9","44","rainbowcie","4.6","453.83","0","0","0","1","99","4212","85"
"296","18379","2","3","45","rainbowcie","4.6","453.83","1","0.20615","0.21","1","1","3928","502"
"296","18380","2","10","46","rainbowcie","4.6","453.83","0","0","0","1","99","8032","80"
"296","18381","2","11","47","rainbowcie","4.6","453.83","0","0","0","1","99","10092","91"
"296","18382","2","3","48","rainbowcie","4.6","453.83","1","0.245203","0.24","1","3","4247","384"
"296","18383","3","1","49","blues","1.2","109.44","0","0","0","1","99","4952","65"
"296","18384","3","1","50","blues","1.2","109.44","1","0.261157","0.26","1","1","11043","293"
"296","18385","3","1","51","blues","1.2","109.44","0","0","0","1","99","4303","92"
"296","18386","3","1","52","blues","1.2","109.44","1","0.218156","0.21","1","2","13070","124"
"296","18387","3","2","53","blues","1.2","109.44","1","0.219039","0.21","1","1","9342","83"
"296","18388","3","2","54","blues","1.2","109.44","0","0","0","1","99","3315","89"
"296","18389","3","1","55","blues","1.2","109.44","1","0.235227","0.23","1","4","2946","268"
"296","18390","3","1","56","blues","1.2","109.44","1","0.240407","0.24","1","1","2134","235"
"296","18391","3","3","57","blues","1.2","109.44","1","0.216045","0.21","1","2","11231","87"
"296","18392","3","3","58","blues","1.2","109.44","0","0","0","1","99","2757","82"
"296","18393","3","2","59","blues","1.2","109.44","1","0.239166","0.24","1","3","2516","268"
"296","18394","3","2","60","blues","1.2","109.44","1","0.226556","0.23","1","1","7700","212"
"296","18395","3","2","61","blues","1.2","109.44","1","0.25253","0.26","1","1","4993","1109"
"296","18396","3","4","62","blues","1.2","109.44","0","0","0","1","99","7865","88"
"296","18397","3","3","63","blues","1.2","109.44","1","0.265634","0.26","0","3","7470","155"
"296","18398","3","3","64","blues","1.2","109.44","1","0.238246","0.23","1","2","5873","604"
"296","18399","3","5","65","blues","1.2","109.44","0","0","0","1","99","4284","84"
"296","18400","3","6","66","blues","1.2","109.44","0","0","0","1","99","5862","99"
"296","18401","3","7","67","blues","1.2","109.44","0","0","0","1","99","5759","99"
"296","18402","3","8","68","blues","1.2","109.44","0","0","0","1","99","4749","74"
"296","18403","3","9","69","blues","1.2","109.44","0","0","0","1","99","9633","82"
"296","18404","3","10","70","blues","1.2","109.44","0","0","0","1","99","10542","85"
"296","18405","3","3","71","blues","1.2","109.44","1","0.238991","0.24","1","2","6940","420"
"296","18406","3","2","72","blues","1.2","109.44","0","0","0","0","2","4424","78"
"296","18407","4","1","73","viridis","2.75","217.31","1","0.211757","0.21","1","2","2262","112"
"296","18408","4","1","74","viridis","2.75","217.31","1","0.241679","0.24","1","1","14498","98"
"296","18409","4","1","75","viridis","2.75","217.31","0","0","0","1","99","4372","81"
"296","18410","4","1","76","viridis","2.75","217.31","0","0","0","1","99","7459","77"
"296","18411","4","2","77","viridis","2.75","217.31","1","0.201382","0.21","0","3","6635","143"
"296","18412","4","2","78","viridis","2.75","217.31","0","0","0","1","99","3296","159"
"296","18413","4","3","79","viridis","2.75","217.31","0","0","0","1","99","5224","67"
"296","18414","4","1","80","viridis","2.75","217.31","1","0.269497","0.26","1","4","4426","82"
"296","18415","4","1","81","viridis","2.75","217.31","1","0.220958","0.23","0","99","5359","299"
"296","18416","4","2","82","viridis","2.75","217.31","1","0.240965","0.24","1","4","5702","496"
"296","18417","4","4","83","viridis","2.75","217.31","0","0","0","1","99","4435","96"
"296","18418","4","2","84","viridis","2.75","217.31","1","0.264432","0.26","1","4","3759","138"
"296","18419","4","3","85","viridis","2.75","217.31","1","0.218023","0.21","0","2","5409","391"
"296","18420","4","5","86","viridis","2.75","217.31","0","0","0","1","99","2931","96"
"296","18421","4","2","87","viridis","2.75","217.31","1","0.227539","0.23","0","99","4697","512"
"296","18422","4","6","88","viridis","2.75","217.31","0","0","0","1","99","7603","139"
"296","18423","4","3","89","viridis","2.75","217.31","1","0.258941","0.26","1","2","4813","123"
"296","18424","4","7","90","viridis","2.75","217.31","0","0","0","1","99","4688","81"
"296","18425","4","8","91","viridis","2.75","217.31","0","0","0","1","99","4379","87"
"296","18426","4","9","92","viridis","2.75","217.31","0","0","0","1","99","6011","103"
"296","18427","4","10","93","viridis","2.75","217.31","0","0","0","1","99","14907","92"
"296","18428","4","11","94","viridis","2.75","217.31","0","0","0","1","99","8499","76"
"296","18429","4","3","95","viridis","2.75","217.31","1","0.223047","0.23","1","4","5335","545"
"296","18430","4","3","96","viridis","2.75","217.31","1","0.232215","0.24","0","4","6219","173"
"297","18431","1","1","1","blues","1.2","109.44","1","0.249063","0.24","1","1","4309","209"
"297","18432","1","1","2","blues","1.2","109.44","0","0","0","0","3","5950","107"
"297","18433","1","1","3","blues","1.2","109.44","1","0.208442","0.21","0","99","10597","105"
"297","18434","1","2","4","blues","1.2","109.44","0","0","0","1","99","2909","49"
"297","18435","1","1","5","blues","1.2","109.44","1","0.257668","0.26","1","1","7570","318"
"297","18436","1","3","6","blues","1.2","109.44","0","0","0","1","99","4605","55"
"297","18437","1","1","7","blues","1.2","109.44","1","0.235972","0.23","1","1","2796","56"
"297","18438","1","4","8","blues","1.2","109.44","0","0","0","1","99","11062","56"
"297","18439","1","5","9","blues","1.2","109.44","0","0","0","1","99","7783","58"
"297","18440","1","6","10","blues","1.2","109.44","0","0","0","1","99","3334","56"
"297","18441","1","2","11","blues","1.2","109.44","1","0.233056","0.23","1","3","7492","328"
"297","18442","1","2","12","blues","1.2","109.44","1","0.230539","0.24","1","1","4949","99"
"297","18443","1","2","13","blues","1.2","109.44","1","0.212041","0.21","0","99","3445","137"
"297","18444","1","2","14","blues","1.2","109.44","1","0.257997","0.26","1","3","18302","64"
"297","18445","1","3","15","blues","1.2","109.44","1","0.253084","0.26","1","3","5446","56"
"297","18446","1","3","16","blues","1.2","109.44","1","0.247678","0.24","0","99","6133","65"
"297","18447","1","3","17","blues","1.2","109.44","1","0.227317","0.23","0","99","12958","118"
"297","18448","1","7","18","blues","1.2","109.44","0","0","0","1","99","4477","63"
"297","18449","1","3","19","blues","1.2","109.44","1","0.210315","0.21","1","2","3991","58"
"297","18450","1","8","20","blues","1.2","109.44","0","0","0","1","99","5381","55"
"297","18451","1","9","21","blues","1.2","109.44","0","0","0","1","99","4902","67"
"297","18452","1","10","22","blues","1.2","109.44","0","0","0","1","99","5047","59"
"297","18453","1","11","23","blues","1.2","109.44","0","0","0","1","99","4893","66"
"297","18454","1","12","24","blues","1.2","109.44","0","0","0","1","99","9564","59"
"297","18455","2","1","25","rainbowcie","4.6","453.83","1","0.25418","0.26","1","3","4184","404"
"297","18456","2","1","26","rainbowcie","4.6","453.83","0","0","0","1","99","3380","49"
"297","18457","2","1","27","rainbowcie","4.6","453.83","1","0.204155","0.21","1","2","5417","605"
"297","18458","2","2","28","rainbowcie","4.6","453.83","0","0","0","0","2","58687","49"
"297","18459","2","3","29","rainbowcie","4.6","453.83","0","0","0","1","99","10685","57"
"297","18460","2","4","30","rainbowcie","4.6","453.83","0","0","0","1","99","12780","55"
"297","18461","2","1","31","rainbowcie","4.6","453.83","1","0.249531","0.24","1","3","7743","558"
"297","18462","2","2","32","rainbowcie","4.6","453.83","1","0.252568","0.26","1","4","7583","127"
"297","18463","2","1","33","rainbowcie","4.6","453.83","1","0.223561","0.23","0","99","4133","157"
"297","18464","2","2","34","rainbowcie","4.6","453.83","1","0.232322","0.23","0","99","15525","77"
"297","18465","2","2","35","rainbowcie","4.6","453.83","1","0.240993","0.24","1","4","4590","117"
"297","18466","2","5","36","rainbowcie","4.6","453.83","0","0","0","1","99","9477","55"
"297","18467","2","2","37","rainbowcie","4.6","453.83","1","0.215771","0.21","1","3","7310","151"
"297","18468","2","6","38","rainbowcie","4.6","453.83","0","0","0","1","99","5030","48"
"297","18469","2","3","39","rainbowcie","4.6","453.83","1","0.263981","0.26","1","2","4054","56"
"297","18470","2","7","40","rainbowcie","4.6","453.83","0","0","0","1","99","11669","49"
"297","18471","2","1","41","rainbowcie","4.6","453.83","0","0","0","1","99","2437","55"
"297","18472","2","8","42","rainbowcie","4.6","453.83","0","0","0","1","99","6077","55"
"297","18473","2","3","43","rainbowcie","4.6","453.83","1","0.225721","0.23","0","99","16469","153"
"297","18474","2","2","44","rainbowcie","4.6","453.83","0","0","0","1","99","10117","55"
"297","18475","2","3","45","rainbowcie","4.6","453.83","1","0.23169","0.24","1","4","8838","264"
"297","18476","2","9","46","rainbowcie","4.6","453.83","0","0","0","1","99","6710","63"
"297","18477","2","3","47","rainbowcie","4.6","453.83","1","0.218334","0.21","0","99","10181","330"
"297","18478","2","10","48","rainbowcie","4.6","453.83","0","0","0","1","99","12597","49"
"297","18479","3","1","49","coolwarm","2.42","231.55","1","0.221797","0.23","1","4","5135","84"
"297","18480","3","2","50","coolwarm","2.42","231.55","1","0.220185","0.23","1","4","11854","147"
"297","18481","3","3","51","coolwarm","2.42","231.55","1","0.229706","0.23","0","99","7853","118"
"297","18482","3","1","52","coolwarm","2.42","231.55","0","0","0","1","99","4029","62"
"297","18483","3","1","53","coolwarm","2.42","231.55","0","0","0","1","99","3692","56"
"297","18484","3","2","54","coolwarm","2.42","231.55","0","0","0","1","99","4765","55"
"297","18485","3","1","55","coolwarm","2.42","231.55","1","0.241437","0.24","1","3","2534","65"
"297","18486","3","1","56","coolwarm","2.42","231.55","1","0.201294","0.21","1","4","3453","84"
"297","18487","3","3","57","coolwarm","2.42","231.55","0","0","0","1","99","2156","62"
"297","18488","3","4","58","coolwarm","2.42","231.55","0","0","0","1","99","5590","48"
"297","18489","3","2","59","coolwarm","2.42","231.55","1","0.237989","0.24","1","3","6077","177"
"297","18490","3","5","60","coolwarm","2.42","231.55","0","0","0","1","99","14445","56"
"297","18491","3","6","61","coolwarm","2.42","231.55","0","0","0","1","99","8997","57"
"297","18492","3","7","62","coolwarm","2.42","231.55","0","0","0","1","99","5630","57"
"297","18493","3","2","63","coolwarm","2.42","231.55","1","0.212596","0.21","0","1","8574","205"
"297","18494","3","2","64","coolwarm","2.42","231.55","0","0","0","1","99","3734","49"
"297","18495","3","8","65","coolwarm","2.42","231.55","0","0","0","1","99","8238","64"
"297","18496","3","1","66","coolwarm","2.42","231.55","1","0.25066","0.26","1","1","4223","336"
"297","18497","3","2","67","coolwarm","2.42","231.55","1","0.268551","0.26","1","4","4285","120"
"297","18498","3","3","68","coolwarm","2.42","231.55","1","0.267742","0.26","1","2","6837","266"
"297","18499","3","3","69","coolwarm","2.42","231.55","1","0.241047","0.24","0","99","5301","104"
"297","18500","3","3","70","coolwarm","2.42","231.55","1","0.208522","0.21","1","2","2670","88"
"297","18501","3","9","71","coolwarm","2.42","231.55","0","0","0","1","99","4229","56"
"297","18502","3","10","72","coolwarm","2.42","231.55","0","0","0","1","99","7221","55"
"297","18503","4","1","73","viridis","2.75","217.31","0","0","0","1","99","4020","49"
"297","18504","4","2","74","viridis","2.75","217.31","0","0","0","1","99","5149","61"
"297","18505","4","3","75","viridis","2.75","217.31","0","0","0","1","99","9910","52"
"297","18506","4","1","76","viridis","2.75","217.31","1","0.239219","0.23","0","99","4237","199"
"297","18507","4","1","77","viridis","2.75","217.31","1","0.213119","0.21","1","2","8743","237"
"297","18508","4","1","78","viridis","2.75","217.31","1","0.254416","0.26","1","1","8616","407"
"297","18509","4","2","79","viridis","2.75","217.31","1","0.214881","0.21","1","3","5660","132"
"297","18510","4","4","80","viridis","2.75","217.31","0","0","0","1","99","12246","49"
"297","18511","4","1","81","viridis","2.75","217.31","0","0","0","1","99","3333","56"
"297","18512","4","3","82","viridis","2.75","217.31","1","0.203088","0.21","0","99","3389","321"
"297","18513","4","2","83","viridis","2.75","217.31","1","0.233254","0.23","0","99","3066","413"
"297","18514","4","2","84","viridis","2.75","217.31","1","0.265356","0.26","1","1","2437","184"
"297","18515","4","1","85","viridis","2.75","217.31","1","0.239909","0.24","1","3","3630","296"
"297","18516","4","3","86","viridis","2.75","217.31","1","0.225483","0.23","1","2","10046","119"
"297","18517","4","2","87","viridis","2.75","217.31","1","0.242023","0.24","1","3","6500","60"
"297","18518","4","3","88","viridis","2.75","217.31","1","0.234931","0.24","1","3","4397","137"
"297","18519","4","5","89","viridis","2.75","217.31","0","0","0","1","99","2067","62"
"297","18520","4","6","90","viridis","2.75","217.31","0","0","0","1","99","3398","50"
"297","18521","4","7","91","viridis","2.75","217.31","0","0","0","1","99","4485","48"
"297","18522","4","8","92","viridis","2.75","217.31","0","0","0","1","99","5821","55"
"297","18523","4","3","93","viridis","2.75","217.31","1","0.256261","0.26","1","3","5435","380"
"297","18524","4","9","94","viridis","2.75","217.31","0","0","0","1","99","3645","50"
"297","18525","4","10","95","viridis","2.75","217.31","0","0","0","1","99","5711","59"
"297","18526","4","11","96","viridis","2.75","217.31","0","0","0","1","99","6828","56"
"294","18527","1","1","1","rainbowcie","4.6","453.83","1","0.236343","0.24","1","2","4349","203"
"294","18528","1","1","2","rainbowcie","4.6","453.83","0","0","0","1","99","4274","124"
"294","18529","1","1","3","rainbowcie","4.6","453.83","0","0","0","0","1","8443","111"
"294","18530","1","2","4","rainbowcie","4.6","453.83","0","0","0","1","99","5519","79"
"294","18531","1","1","5","rainbowcie","4.6","453.83","1","0.23717","0.23","1","2","6463","78"
"294","18532","1","1","6","rainbowcie","4.6","453.83","1","0.20251","0.21","1","2","7796","81"
"294","18533","1","2","7","rainbowcie","4.6","453.83","1","0.23111","0.24","1","2","8797","407"
"294","18534","1","3","8","rainbowcie","4.6","453.83","0","0","0","1","99","4917","68"
"294","18535","1","4","9","rainbowcie","4.6","453.83","0","0","0","0","1","3714","76"
"294","18536","1","3","10","rainbowcie","4.6","453.83","1","0.230631","0.24","0","3","4488","97"
"294","18537","1","2","11","rainbowcie","4.6","453.83","1","0.213851","0.21","1","1","7108","61"
"294","18538","1","5","12","rainbowcie","4.6","453.83","0","0","0","0","1","3415","74"
"294","18539","1","6","13","rainbowcie","4.6","453.83","0","0","0","1","99","3199","63"
"294","18540","1","1","14","rainbowcie","4.6","453.83","1","0.262438","0.26","1","4","2854","173"
"294","18541","1","7","15","rainbowcie","4.6","453.83","0","0","0","0","2","5262","68"
"294","18542","1","3","16","rainbowcie","4.6","453.83","1","0.210415","0.21","1","3","4745","132"
"294","18543","1","2","17","rainbowcie","4.6","453.83","1","0.228371","0.23","1","1","109965","841"
"294","18544","1","3","18","rainbowcie","4.6","453.83","1","0.228319","0.23","1","4","8019","283"
"294","18545","1","2","19","rainbowcie","4.6","453.83","1","0.265609","0.26","0","99","5133","140"
"294","18546","1","8","20","rainbowcie","4.6","453.83","0","0","0","1","99","14198","85"
"294","18547","1","3","21","rainbowcie","4.6","453.83","1","0.265029","0.26","1","4","5777","159"
"294","18548","1","9","22","rainbowcie","4.6","453.83","0","0","0","1","99","3285","86"
"294","18549","1","10","23","rainbowcie","4.6","453.83","0","0","0","0","1","2857","70"
"294","18550","1","11","24","rainbowcie","4.6","453.83","0","0","0","1","99","2856","72"
"294","18551","2","1","25","coolwarm","2.42","231.55","0","0","0","0","4","4387","83"
"294","18552","2","1","26","coolwarm","2.42","231.55","1","0.252393","0.26","1","2","9540","567"
"294","18553","2","1","27","coolwarm","2.42","231.55","1","0.202498","0.21","1","2","568600","111"
"294","18554","2","1","28","coolwarm","2.42","231.55","1","0.220865","0.23","0","99","3844","160"
"294","18555","2","2","29","coolwarm","2.42","231.55","0","0","0","0","1","3328","85"
"294","18556","2","3","30","coolwarm","2.42","231.55","0","0","0","0","4","3330","63"
"294","18557","2","2","31","coolwarm","2.42","231.55","1","0.208803","0.21","0","99","2684","109"
"294","18558","2","2","32","coolwarm","2.42","231.55","1","0.268646","0.26","0","99","2555","98"
"294","18559","2","2","33","coolwarm","2.42","231.55","1","0.232624","0.23","0","2","7925","193"
"294","18560","2","4","34","coolwarm","2.42","231.55","0","0","0","1","99","6678","67"
"294","18561","2","3","35","coolwarm","2.42","231.55","1","0.214336","0.21","1","1","7969","207"
"294","18562","2","5","36","coolwarm","2.42","231.55","0","0","0","1","99","5906","76"
"294","18563","2","6","37","coolwarm","2.42","231.55","0","0","0","0","3","3671","77"
"294","18564","2","1","38","coolwarm","2.42","231.55","1","0.241565","0.24","0","4","6378","126"
"294","18565","2","1","39","coolwarm","2.42","231.55","0","0","0","0","4","3285","69"
"294","18566","2","7","40","coolwarm","2.42","231.55","0","0","0","1","99","2169","75"
"294","18567","2","8","41","coolwarm","2.42","231.55","0","0","0","1","99","7280","78"
"294","18568","2","3","42","coolwarm","2.42","231.55","1","0.254817","0.26","1","1","14198","239"
"294","18569","2","9","43","coolwarm","2.42","231.55","0","0","0","0","2","248440","61"
"294","18570","2","10","44","coolwarm","2.42","231.55","0","0","0","1","99","5476","77"
"294","18571","2","11","45","coolwarm","2.42","231.55","0","0","0","0","2","5565","101"
"294","18572","2","3","46","coolwarm","2.42","231.55","1","0.230742","0.23","0","99","2798","565"
"294","18573","2","2","47","coolwarm","2.42","231.55","1","0.233054","0.24","1","3","3588","127"
"294","18574","2","3","48","coolwarm","2.42","231.55","1","0.246306","0.24","0","99","4317","113"
"294","18575","3","1","49","viridis","2.75","217.31","1","0.246796","0.24","1","4","7060","196"
"294","18576","3","1","50","viridis","2.75","217.31","1","0.221913","0.23","1","2","1933","356"
"294","18577","3","1","51","viridis","2.75","217.31","0","0","0","0","1","2985","64"
"294","18578","3","1","52","viridis","2.75","217.31","0","0","0","1","99","3499","110"
"294","18579","3","2","53","viridis","2.75","217.31","0","0","0","0","3","10588","69"
"294","18580","3","2","54","viridis","2.75","217.31","1","0.222996","0.23","1","1","4788","194"
"294","18581","3","3","55","viridis","2.75","217.31","0","0","0","1","99","2942","77"
"294","18582","3","3","56","viridis","2.75","217.31","1","0.222238","0.23","1","4","5570","713"
"294","18583","3","2","57","viridis","2.75","217.31","1","0.246417","0.24","0","99","2125","292"
"294","18584","3","4","58","viridis","2.75","217.31","0","0","0","1","99","2083","78"
"294","18585","3","5","59","viridis","2.75","217.31","0","0","0","0","2","2771","69"
"294","18586","3","6","60","viridis","2.75","217.31","0","0","0","1","99","4146","83"
"294","18587","3","1","61","viridis","2.75","217.31","1","0.206053","0.21","0","4","4058","121"
"294","18588","3","7","62","viridis","2.75","217.31","0","0","0","1","99","2040","76"
"294","18589","3","2","63","viridis","2.75","217.31","1","0.200926","0.21","0","99","2277","397"
"294","18590","3","8","64","viridis","2.75","217.31","0","0","0","0","4","3805","97"
"294","18591","3","2","65","viridis","2.75","217.31","0","0","0","1","99","3328","75"
"294","18592","3","1","66","viridis","2.75","217.31","1","0.256552","0.26","0","1","3415","137"
"294","18593","3","2","67","viridis","2.75","217.31","1","0.265584","0.26","1","1","3028","170"
"294","18594","3","9","68","viridis","2.75","217.31","0","0","0","1","99","3413","80"
"294","18595","3","3","69","viridis","2.75","217.31","1","0.234837","0.24","1","4","3844","151"
"294","18596","3","3","70","viridis","2.75","217.31","1","0.260386","0.26","1","1","5519","109"
"294","18597","3","10","71","viridis","2.75","217.31","0","0","0","1","99","2642","71"
"294","18598","3","3","72","viridis","2.75","217.31","1","0.209235","0.21","0","99","2444","448"
"294","18599","4","1","73","blues","1.2","109.44","1","0.232326","0.23","1","4","2891","251"
"294","18600","4","1","74","blues","1.2","109.44","0","0","0","1","99","2427","73"
"294","18601","4","2","75","blues","1.2","109.44","0","0","0","1","99","2903","70"
"294","18602","4","1","76","blues","1.2","109.44","1","0.255229","0.26","1","3","5168","298"
"294","18603","4","3","77","blues","1.2","109.44","0","0","0","0","3","4274","77"
"294","18604","4","1","78","blues","1.2","109.44","1","0.237579","0.24","1","4","2127","214"
"294","18605","4","2","79","blues","1.2","109.44","1","0.236529","0.23","0","4","5133","131"
"294","18606","4","2","80","blues","1.2","109.44","1","0.264937","0.26","0","99","3666","472"
"294","18607","4","4","81","blues","1.2","109.44","0","0","0","1","99","2511","75"
"294","18608","4","5","82","blues","1.2","109.44","0","0","0","0","4","4058","74"
"294","18609","4","3","83","blues","1.2","109.44","1","0.232185","0.23","1","1","2385","71"
"294","18610","4","1","84","blues","1.2","109.44","1","0.209086","0.21","1","2","2730","128"
"294","18611","4","6","85","blues","1.2","109.44","0","0","0","1","99","3327","70"
"294","18612","4","2","86","blues","1.2","109.44","1","0.202532","0.21","0","99","2138","366"
"294","18613","4","7","87","blues","1.2","109.44","0","0","0","0","4","1954","85"
"294","18614","4","3","88","blues","1.2","109.44","1","0.2148","0.21","1","4","1868","551"
"294","18615","4","2","89","blues","1.2","109.44","1","0.237506","0.24","0","99","2309","323"
"294","18616","4","1","90","blues","1.2","109.44","0","0","0","1","99","4574","102"
"294","18617","4","3","91","blues","1.2","109.44","1","0.258851","0.26","1","1","2169","76"
"294","18618","4","8","92","blues","1.2","109.44","0","0","0","0","4","2212","61"
"294","18619","4","3","93","blues","1.2","109.44","1","0.231937","0.24","1","2","2411","481"
"294","18620","4","9","94","blues","1.2","109.44","0","0","0","1","99","4275","86"
"294","18621","4","10","95","blues","1.2","109.44","0","0","0","0","4","2771","70"
"294","18622","4","11","96","blues","1.2","109.44","0","0","0","1","99","3673","88"
"300","18623","1","1","1","coolwarm","2.42","231.55","1","0.20202","0.21","1","3","4673","266"
"300","18624","1","1","2","coolwarm","2.42","231.55","1","0.241438","0.24","0","3","21198","543"
"300","18625","1","1","3","coolwarm","2.42","231.55","1","0.260297","0.26","0","3","7650","145"
"300","18626","1","1","4","coolwarm","2.42","231.55","0","0","0","1","99","5286","59"
"300","18627","1","2","5","coolwarm","2.42","231.55","0","0","0","1","99","2677","78"
"300","18628","1","2","6","coolwarm","2.42","231.55","1","0.250818","0.26","1","4","4133","149"
"300","18629","1","3","7","coolwarm","2.42","231.55","0","0","0","0","3","10340","60"
"300","18630","1","1","8","coolwarm","2.42","231.55","0","0","0","0","1","12822","79"
"300","18631","1","1","9","coolwarm","2.42","231.55","1","0.221909","0.23","1","1","1813","216"
"300","18632","1","2","10","coolwarm","2.42","231.55","1","0.2296","0.23","0","3","5716","458"
"300","18633","1","3","11","coolwarm","2.42","231.55","1","0.238838","0.23","0","99","2738","99"
"300","18634","1","4","12","coolwarm","2.42","231.55","0","0","0","1","99","5683","78"
"300","18635","1","5","13","coolwarm","2.42","231.55","0","0","0","1","99","9212","80"
"300","18636","1","2","14","coolwarm","2.42","231.55","1","0.244107","0.24","1","2","5696","134"
"300","18637","1","6","15","coolwarm","2.42","231.55","0","0","0","1","99","4359","59"
"300","18638","1","2","16","coolwarm","2.42","231.55","1","0.217067","0.21","1","4","10943","447"
"300","18639","1","7","17","coolwarm","2.42","231.55","0","0","0","0","4","3437","85"
"300","18640","1","8","18","coolwarm","2.42","231.55","0","0","0","0","2","3583","67"
"300","18641","1","3","19","coolwarm","2.42","231.55","1","0.20559","0.21","0","99","2421","68"
"300","18642","1","9","20","coolwarm","2.42","231.55","0","0","0","1","99","6501","57"
"300","18643","1","3","21","coolwarm","2.42","231.55","1","0.235866","0.24","1","4","8359","343"
"300","18644","1","10","22","coolwarm","2.42","231.55","0","0","0","0","4","10148","67"
"300","18645","1","3","23","coolwarm","2.42","231.55","1","0.251658","0.26","1","2","9089","241"
"300","18646","1","2","24","coolwarm","2.42","231.55","0","0","0","1","99","1718","57"
"300","18647","2","1","25","blues","1.2","109.44","1","0.234021","0.23","1","4","2196","183"
"300","18648","2","1","26","blues","1.2","109.44","1","0.209385","0.21","0","99","5493","67"
"300","18649","2","2","27","blues","1.2","109.44","1","0.221607","0.23","0","99","9493","62"
"300","18650","2","1","28","blues","1.2","109.44","0","0","0","1","99","6644","57"
"300","18651","2","2","29","blues","1.2","109.44","0","0","0","1","99","8181","57"
"300","18652","2","1","30","blues","1.2","109.44","1","0.267169","0.26","1","3","4773","83"
"300","18653","2","2","31","blues","1.2","109.44","1","0.264046","0.26","1","2","5859","133"
"300","18654","2","1","32","blues","1.2","109.44","0","0","0","0","4","9492","77"
"300","18655","2","3","33","blues","1.2","109.44","0","0","0","1","99","3462","58"
"300","18656","2","4","34","blues","1.2","109.44","0","0","0","1","99","5829","68"
"300","18657","2","1","35","blues","1.2","109.44","1","0.235921","0.24","0","99","7158","58"
"300","18658","2","5","36","blues","1.2","109.44","0","0","0","1","99","7366","67"
"300","18659","2","3","37","blues","1.2","109.44","1","0.261197","0.26","1","1","6629","599"
"300","18660","2","6","38","blues","1.2","109.44","0","0","0","0","3","9187","79"
"300","18661","2","7","39","blues","1.2","109.44","0","0","0","1","99","3524","58"
"300","18662","2","8","40","blues","1.2","109.44","0","0","0","0","1","5940","66"
"300","18663","2","2","41","blues","1.2","109.44","1","0.239261","0.24","1","3","8805","80"
"300","18664","2","9","42","blues","1.2","109.44","0","0","0","1","99","10934","57"
"300","18665","2","3","43","blues","1.2","109.44","1","0.238179","0.23","1","3","8356","85"
"300","18666","2","2","44","blues","1.2","109.44","1","0.219877","0.21","0","99","5269","68"
"300","18667","2","10","45","blues","1.2","109.44","0","0","0","0","2","3142","69"
"300","18668","2","3","46","blues","1.2","109.44","1","0.238189","0.24","0","2","12098","67"
"300","18669","2","11","47","blues","1.2","109.44","0","0","0","1","99","11141","56"
"300","18670","2","3","48","blues","1.2","109.44","1","0.21681","0.21","1","4","7695","624"
"300","18671","3","1","49","viridis","2.75","217.31","0","0","0","1","99","11858","66"
"300","18672","3","1","50","viridis","2.75","217.31","1","0.204002","0.21","0","99","7958","440"
"300","18673","3","2","51","viridis","2.75","217.31","1","0.204879","0.21","0","99","4720","462"
"300","18674","3","1","52","viridis","2.75","217.31","1","0.264884","0.26","1","1","18104","205"
"300","18675","3","2","53","viridis","2.75","217.31","0","0","0","0","2","4948","59"
"300","18676","3","3","54","viridis","2.75","217.31","0","0","0","1","99","4279","68"
"300","18677","3","1","55","viridis","2.75","217.31","1","0.243567","0.24","0","99","8366","142"
"300","18678","3","4","56","viridis","2.75","217.31","0","0","0","0","1","7956","78"
"300","18679","3","3","57","viridis","2.75","217.31","1","0.201219","0.21","1","3","4359","390"
"300","18680","3","1","58","viridis","2.75","217.31","1","0.232353","0.23","0","99","5963","202"
"300","18681","3","5","59","viridis","2.75","217.31","0","0","0","1","99","12378","69"
"300","18682","3","6","60","viridis","2.75","217.31","0","0","0","0","1","9953","75"
"300","18683","3","7","61","viridis","2.75","217.31","0","0","0","1","99","12213","75"
"300","18684","3","2","62","viridis","2.75","217.31","1","0.232103","0.24","1","1","3703","68"
"300","18685","3","3","63","viridis","2.75","217.31","1","0.236158","0.24","0","4","9275","276"
"300","18686","3","8","64","viridis","2.75","217.31","0","0","0","1","99","6229","71"
"300","18687","3","2","65","viridis","2.75","217.31","1","0.227356","0.23","1","1","5685","58"
"300","18688","3","9","66","viridis","2.75","217.31","0","0","0","1","99","12854","67"
"300","18689","3","1","67","viridis","2.75","217.31","0","0","0","1","99","8950","71"
"300","18690","3","10","68","viridis","2.75","217.31","0","0","0","1","99","6709","70"
"300","18691","3","3","69","viridis","2.75","217.31","1","0.232607","0.23","0","2","8277","108"
"300","18692","3","2","70","viridis","2.75","217.31","1","0.267219","0.26","1","4","36031","826"
"300","18693","3","3","71","viridis","2.75","217.31","1","0.264073","0.26","1","4","3766","69"
"300","18694","3","11","72","viridis","2.75","217.31","0","0","0","1","99","5414","67"
"300","18695","4","1","73","rainbowcie","4.6","453.83","0","0","0","1","99","12602","79"
"300","18696","4","1","74","rainbowcie","4.6","453.83","1","0.236903","0.23","1","2","7060","77"
"300","18697","4","1","75","rainbowcie","4.6","453.83","1","0.251049","0.26","1","1","4866","363"
"300","18698","4","2","76","rainbowcie","4.6","453.83","0","0","0","1","99","6550","79"
"300","18699","4","2","77","rainbowcie","4.6","453.83","1","0.220925","0.23","0","99","12675","109"
"300","18700","4","3","78","rainbowcie","4.6","453.83","0","0","0","1","99","9909","66"
"300","18701","4","4","79","rainbowcie","4.6","453.83","0","0","0","0","1","14229","58"
"300","18702","4","5","80","rainbowcie","4.6","453.83","0","0","0","1","99","6645","57"
"300","18703","4","1","81","rainbowcie","4.6","453.83","1","0.237401","0.24","1","2","5461","96"
"300","18704","4","6","82","rainbowcie","4.6","453.83","0","0","0","0","2","5765","57"
"300","18705","4","7","83","rainbowcie","4.6","453.83","0","0","0","1","99","9397","80"
"300","18706","4","8","84","rainbowcie","4.6","453.83","0","0","0","1","99","7347","58"
"300","18707","4","9","85","rainbowcie","4.6","453.83","0","0","0","0","4","10644","70"
"300","18708","4","2","86","rainbowcie","4.6","453.83","1","0.262544","0.26","1","1","2892","546"
"300","18709","4","3","87","rainbowcie","4.6","453.83","1","0.23605","0.23","1","3","6997","68"
"300","18710","4","2","88","rainbowcie","4.6","453.83","1","0.247612","0.24","1","2","3701","172"
"300","18711","4","3","89","rainbowcie","4.6","453.83","1","0.265901","0.26","1","2","2805","96"
"300","18712","4","3","90","rainbowcie","4.6","453.83","1","0.246815","0.24","1","3","3094","120"
"300","18713","4","1","91","rainbowcie","4.6","453.83","1","0.20549","0.21","1","3","4228","207"
"300","18714","4","10","92","rainbowcie","4.6","453.83","0","0","0","1","99","3492","78"
"300","18715","4","2","93","rainbowcie","4.6","453.83","1","0.214915","0.21","0","99","10435","826"
"300","18716","4","1","94","rainbowcie","4.6","453.83","0","0","0","1","99","5781","69"
"300","18717","4","11","95","rainbowcie","4.6","453.83","0","0","0","1","99","7637","56"
"300","18718","4","3","96","rainbowcie","4.6","453.83","1","0.206676","0.21","0","2","3508","68"
"302","18719","1","1","1","coolwarm","2.42","231.55","0","0","0","0","3","9325","142"
"302","18720","1","2","2","coolwarm","2.42","231.55","0","0","0","0","3","10074","115"
"302","18721","1","1","3","coolwarm","2.42","231.55","1","0.266864","0.26","1","3","3700","358"
"302","18722","1","2","4","coolwarm","2.42","231.55","1","0.257279","0.26","1","2","2377","313"
"302","18723","1","3","5","coolwarm","2.42","231.55","0","0","0","0","2","15347","52"
"302","18724","1","1","6","coolwarm","2.42","231.55","1","0.212163","0.21","1","3","3411","105"
"302","18725","1","1","7","coolwarm","2.42","231.55","1","0.234907","0.23","1","3","5860","302"
"302","18726","1","4","8","coolwarm","2.42","231.55","0","0","0","1","99","5135","70"
"302","18727","1","2","9","coolwarm","2.42","231.55","1","0.223404","0.23","1","4","10468","208"
"302","18728","1","1","10","coolwarm","2.42","231.55","0","0","0","1","99","4064","56"
"302","18729","1","5","11","coolwarm","2.42","231.55","0","0","0","0","3","8903","59"
"302","18730","1","3","12","coolwarm","2.42","231.55","1","0.26586","0.26","1","3","3741","558"
"302","18731","1","6","13","coolwarm","2.42","231.55","0","0","0","1","99","5180","63"
"302","18732","1","1","14","coolwarm","2.42","231.55","1","0.249605","0.24","1","4","6802","173"
"302","18733","1","7","15","coolwarm","2.42","231.55","0","0","0","1","99","5956","62"
"302","18734","1","2","16","coolwarm","2.42","231.55","1","0.2402","0.24","1","4","1732","233"
"302","18735","1","8","17","coolwarm","2.42","231.55","0","0","0","1","99","3966","54"
"302","18736","1","2","18","coolwarm","2.42","231.55","1","0.205448","0.21","0","99","9891","83"
"302","18737","1","3","19","coolwarm","2.42","231.55","1","0.219855","0.21","1","4","2458","88"
"302","18738","1","9","20","coolwarm","2.42","231.55","0","0","0","1","99","6244","68"
"302","18739","1","10","21","coolwarm","2.42","231.55","0","0","0","0","1","3560","60"
"302","18740","1","3","22","coolwarm","2.42","231.55","1","0.220539","0.23","1","1","4216","154"
"302","18741","1","11","23","coolwarm","2.42","231.55","0","0","0","0","4","9453","69"
"302","18742","1","3","24","coolwarm","2.42","231.55","1","0.248361","0.24","1","4","1751","63"
"302","18743","2","1","25","blues","1.2","109.44","1","0.239185","0.23","1","3","6618","261"
"302","18744","2","1","26","blues","1.2","109.44","0","0","0","1","99","7038","71"
"302","18745","2","2","27","blues","1.2","109.44","0","0","0","1","99","4387","73"
"302","18746","2","2","28","blues","1.2","109.44","1","0.222251","0.23","1","4","11123","104"
"302","18747","2","3","29","blues","1.2","109.44","0","0","0","1","99","7939","74"
"302","18748","2","4","30","blues","1.2","109.44","0","0","0","1","99","3238","68"
"302","18749","2","5","31","blues","1.2","109.44","0","0","0","1","99","4881","75"
"302","18750","2","1","32","blues","1.2","109.44","1","0.265119","0.26","1","3","6001","214"
"302","18751","2","1","33","blues","1.2","109.44","1","0.212428","0.21","1","2","2044","602"
"302","18752","2","1","34","blues","1.2","109.44","1","0.248047","0.24","1","4","2203","225"
"302","18753","2","6","35","blues","1.2","109.44","0","0","0","1","99","9924","70"
"302","18754","2","7","36","blues","1.2","109.44","0","0","0","1","99","2849","65"
"302","18755","2","3","37","blues","1.2","109.44","1","0.221883","0.23","1","2","7757","78"
"302","18756","2","8","38","blues","1.2","109.44","0","0","0","0","1","4326","80"
"302","18757","2","9","39","blues","1.2","109.44","0","0","0","1","99","5861","70"
"302","18758","2","2","40","blues","1.2","109.44","1","0.204851","0.21","1","1","5213","142"
"302","18759","2","2","41","blues","1.2","109.44","1","0.268965","0.26","0","99","17123","60"
"302","18760","2","3","42","blues","1.2","109.44","1","0.20104","0.21","1","3","2856","81"
"302","18761","2","2","43","blues","1.2","109.44","1","0.237538","0.24","1","4","5628","77"
"302","18762","2","10","44","blues","1.2","109.44","0","0","0","1","99","4887","79"
"302","18763","2","3","45","blues","1.2","109.44","1","0.230083","0.24","1","3","4669","192"
"302","18764","2","11","46","blues","1.2","109.44","0","0","0","1","99","8316","81"
"302","18765","2","3","47","blues","1.2","109.44","1","0.260373","0.26","1","4","4440","170"
"302","18766","2","12","48","blues","1.2","109.44","0","0","0","0","2","1777","79"
"302","18767","3","1","49","rainbowcie","4.6","453.83","1","0.205946","0.21","1","2","3142","82"
"302","18768","3","1","50","rainbowcie","4.6","453.83","0","0","0","1","99","4139","80"
"302","18769","3","1","51","rainbowcie","4.6","453.83","1","0.235439","0.23","1","3","3373","530"
"302","18770","3","2","52","rainbowcie","4.6","453.83","1","0.231922","0.23","1","3","4517","340"
"302","18771","3","1","53","rainbowcie","4.6","453.83","1","0.256213","0.26","1","1","5004","376"
"302","18772","3","3","54","rainbowcie","4.6","453.83","1","0.2351","0.23","0","1","2919","68"
"302","18773","3","2","55","rainbowcie","4.6","453.83","0","0","0","1","99","2237","71"
"302","18774","3","3","56","rainbowcie","4.6","453.83","0","0","0","1","99","3095","54"
"302","18775","3","4","57","rainbowcie","4.6","453.83","0","0","0","1","99","4275","62"
"302","18776","3","2","58","rainbowcie","4.6","453.83","1","0.269906","0.26","1","3","2162","348"
"302","18777","3","1","59","rainbowcie","4.6","453.83","1","0.246439","0.24","1","3","2912","95"
"302","18778","3","5","60","rainbowcie","4.6","453.83","0","0","0","1","99","2906","60"
"302","18779","3","2","61","rainbowcie","4.6","453.83","1","0.235383","0.24","1","2","5294","137"
"302","18780","3","3","62","rainbowcie","4.6","453.83","1","0.256954","0.26","1","1","3433","119"
"302","18781","3","6","63","rainbowcie","4.6","453.83","0","0","0","1","99","4414","76"
"302","18782","3","7","64","rainbowcie","4.6","453.83","0","0","0","1","99","3836","58"
"302","18783","3","8","65","rainbowcie","4.6","453.83","0","0","0","0","3","4478","71"
"302","18784","3","9","66","rainbowcie","4.6","453.83","0","0","0","1","99","9014","83"
"302","18785","3","2","67","rainbowcie","4.6","453.83","1","0.207338","0.21","1","2","6974","139"
"302","18786","3","1","68","rainbowcie","4.6","453.83","0","0","0","1","99","2353","64"
"302","18787","3","10","69","rainbowcie","4.6","453.83","0","0","0","1","99","2091","74"
"302","18788","3","11","70","rainbowcie","4.6","453.83","0","0","0","1","99","1946","66"
"302","18789","3","3","71","rainbowcie","4.6","453.83","1","0.20031","0.21","1","2","3391","411"
"302","18790","3","3","72","rainbowcie","4.6","453.83","1","0.233388","0.24","1","1","4680","457"
"302","18791","4","1","73","viridis","2.75","217.31","0","0","0","1","99","5320","57"
"302","18792","4","1","74","viridis","2.75","217.31","1","0.240873","0.24","1","1","6488","555"
"302","18793","4","2","75","viridis","2.75","217.31","0","0","0","0","3","14110","85"
"302","18794","4","3","76","viridis","2.75","217.31","0","0","0","1","99","9186","58"
"302","18795","4","4","77","viridis","2.75","217.31","0","0","0","1","99","2259","51"
"302","18796","4","1","78","viridis","2.75","217.31","1","0.20435","0.21","0","99","6400","133"
"302","18797","4","5","79","viridis","2.75","217.31","0","0","0","1","99","1973","63"
"302","18798","4","1","80","viridis","2.75","217.31","1","0.231421","0.23","1","3","2618","211"
"302","18799","4","6","81","viridis","2.75","217.31","0","0","0","1","99","3681","61"
"302","18800","4","2","82","viridis","2.75","217.31","1","0.222573","0.23","0","99","2756","175"
"302","18801","4","3","83","viridis","2.75","217.31","1","0.236059","0.23","0","99","5522","178"
"302","18802","4","1","84","viridis","2.75","217.31","1","0.263606","0.26","1","3","2310","102"
"302","18803","4","7","85","viridis","2.75","217.31","0","0","0","0","3","6017","64"
"302","18804","4","2","86","viridis","2.75","217.31","1","0.237489","0.24","1","3","8187","370"
"302","18805","4","1","87","viridis","2.75","217.31","0","0","0","1","99","3000","78"
"302","18806","4","2","88","viridis","2.75","217.31","1","0.211991","0.21","1","1","3765","204"
"302","18807","4","2","89","viridis","2.75","217.31","1","0.252086","0.26","1","4","3273","142"
"302","18808","4","3","90","viridis","2.75","217.31","1","0.244821","0.24","1","2","2979","80"
"302","18809","4","8","91","viridis","2.75","217.31","0","0","0","1","99","3254","59"
"302","18810","4","9","92","viridis","2.75","217.31","0","0","0","0","4","3334","72"
"302","18811","4","3","93","viridis","2.75","217.31","1","0.202437","0.21","1","3","2289","127"
"302","18812","4","10","94","viridis","2.75","217.31","0","0","0","1","99","4465","67"
"302","18813","4","11","95","viridis","2.75","217.31","0","0","0","1","99","2955","70"
"302","18814","4","3","96","viridis","2.75","217.31","1","0.266679","0.26","1","4","4699","227"
"303","18815","1","1","1","blues","1.2","109.44","0","0","0","1","99","8689","226"
"303","18816","1","1","2","blues","1.2","109.44","1","0.236671","0.24","0","99","8130","239"
"303","18817","1","2","3","blues","1.2","109.44","1","0.245398","0.24","1","4","2219","1008"
"303","18818","1","1","4","blues","1.2","109.44","1","0.216126","0.21","0","99","4829","83"
"303","18819","1","2","5","blues","1.2","109.44","0","0","0","1","99","8091","72"
"303","18820","1","2","6","blues","1.2","109.44","1","0.205793","0.21","1","4","5286","209"
"303","18821","1","3","7","blues","1.2","109.44","1","0.202257","0.21","1","1","5412","90"
"303","18822","1","1","8","blues","1.2","109.44","1","0.254393","0.26","1","1","9315","227"
"303","18823","1","3","9","blues","1.2","109.44","0","0","0","1","99","4825","69"
"303","18824","1","2","10","blues","1.2","109.44","1","0.268788","0.26","1","4","2413","268"
"303","18825","1","1","11","blues","1.2","109.44","1","0.222371","0.23","0","99","7411","397"
"303","18826","1","3","12","blues","1.2","109.44","1","0.269875","0.26","1","2","3169","610"
"303","18827","1","4","13","blues","1.2","109.44","0","0","0","1","99","7222","66"
"303","18828","1","1","14","blues","1.2","109.44","0","0","0","0","2","5094","85"
"303","18829","1","2","15","blues","1.2","109.44","0","0","0","1","99","6373","68"
"303","18830","1","5","16","blues","1.2","109.44","0","0","0","1","99","11474","76"
"303","18831","1","6","17","blues","1.2","109.44","0","0","0","0","2","4460","67"
"303","18832","1","2","18","blues","1.2","109.44","1","0.220094","0.23","1","4","2018","141"
"303","18833","1","7","19","blues","1.2","109.44","0","0","0","1","99","5723","90"
"303","18834","1","3","20","blues","1.2","109.44","1","0.22674","0.23","1","2","11904","135"
"303","18835","1","8","21","blues","1.2","109.44","0","0","0","1","99","4613","65"
"303","18836","1","9","22","blues","1.2","109.44","0","0","0","1","99","5532","73"
"303","18837","1","10","23","blues","1.2","109.44","0","0","0","0","3","3823","59"
"303","18838","1","3","24","blues","1.2","109.44","1","0.24187","0.24","0","1","4581","156"
"303","18839","2","1","25","viridis","2.75","217.31","1","0.240521","0.24","1","1","5334","142"
"303","18840","2","1","26","viridis","2.75","217.31","1","0.224992","0.23","1","1","3113","581"
"303","18841","2","1","27","viridis","2.75","217.31","0","0","0","1","99","12274","72"
"303","18842","2","2","28","viridis","2.75","217.31","0","0","0","1","99","8037","70"
"303","18843","2","3","29","viridis","2.75","217.31","0","0","0","0","2","7713","67"
"303","18844","2","1","30","viridis","2.75","217.31","1","0.20035","0.21","1","3","3435","415"
"303","18845","2","2","31","viridis","2.75","217.31","1","0.211356","0.21","1","2","2664","74"
"303","18846","2","4","32","viridis","2.75","217.31","0","0","0","1","99","6779","75"
"303","18847","2","5","33","viridis","2.75","217.31","0","0","0","1","99","6238","76"
"303","18848","2","1","34","viridis","2.75","217.31","1","0.268319","0.26","1","3","3780","77"
"303","18849","2","6","35","viridis","2.75","217.31","0","0","0","1","99","9652","74"
"303","18850","2","7","36","viridis","2.75","217.31","0","0","0","1","99","4135","86"
"303","18851","2","8","37","viridis","2.75","217.31","0","0","0","1","99","8491","83"
"303","18852","2","3","38","viridis","2.75","217.31","1","0.215749","0.21","1","2","2348","260"
"303","18853","2","2","39","viridis","2.75","217.31","1","0.240895","0.24","1","3","4079","121"
"303","18854","2","2","40","viridis","2.75","217.31","1","0.259465","0.26","1","2","4602","1443"
"303","18855","2","9","41","viridis","2.75","217.31","0","0","0","1","99","3235","85"
"303","18856","2","10","42","viridis","2.75","217.31","0","0","0","1","99","7920","77"
"303","18857","2","11","43","viridis","2.75","217.31","0","0","0","1","99","4443","80"
"303","18858","2","2","44","viridis","2.75","217.31","1","0.222698","0.23","1","3","5162","203"
"303","18859","2","3","45","viridis","2.75","217.31","1","0.250803","0.26","1","4","2284","209"
"303","18860","2","12","46","viridis","2.75","217.31","0","0","0","1","99","5726","88"
"303","18861","2","3","47","viridis","2.75","217.31","1","0.231796","0.23","0","99","5333","346"
"303","18862","2","3","48","viridis","2.75","217.31","1","0.235151","0.24","1","1","9789","453"
"303","18863","3","1","49","coolwarm","2.42","231.55","0","0","0","1","99","11503","70"
"303","18864","3","2","50","coolwarm","2.42","231.55","0","0","0","0","2","7546","59"
"303","18865","3","1","51","coolwarm","2.42","231.55","1","0.227444","0.23","0","99","6788","70"
"303","18866","3","1","52","coolwarm","2.42","231.55","1","0.219666","0.21","1","4","8301","535"
"303","18867","3","3","53","coolwarm","2.42","231.55","0","0","0","1","99","5500","83"
"303","18868","3","1","54","coolwarm","2.42","231.55","1","0.261384","0.26","1","1","2413","256"
"303","18869","3","2","55","coolwarm","2.42","231.55","1","0.264266","0.26","0","99","6779","141"
"303","18870","3","2","56","coolwarm","2.42","231.55","1","0.204411","0.21","1","1","6783","113"
"303","18871","3","3","57","coolwarm","2.42","231.55","1","0.20607","0.21","0","99","4892","112"
"303","18872","3","3","58","coolwarm","2.42","231.55","1","0.252432","0.26","1","4","5125","956"
"303","18873","3","4","59","coolwarm","2.42","231.55","0","0","0","1","99","3049","83"
"303","18874","3","5","60","coolwarm","2.42","231.55","0","0","0","1","99","8836","84"
"303","18875","3","1","61","coolwarm","2.42","231.55","1","0.242304","0.24","0","99","4225","130"
"303","18876","3","6","62","coolwarm","2.42","231.55","0","0","0","1","99","4678","66"
"303","18877","3","7","63","coolwarm","2.42","231.55","0","0","0","1","99","3778","70"
"303","18878","3","2","64","coolwarm","2.42","231.55","1","0.234383","0.23","0","3","4541","444"
"303","18879","3","8","65","coolwarm","2.42","231.55","0","0","0","1","99","6414","73"
"303","18880","3","9","66","coolwarm","2.42","231.55","0","0","0","1","99","3908","88"
"303","18881","3","1","67","coolwarm","2.42","231.55","0","0","0","1","99","8109","84"
"303","18882","3","10","68","coolwarm","2.42","231.55","0","0","0","1","99","1985","76"
"303","18883","3","11","69","coolwarm","2.42","231.55","0","0","0","1","99","4994","78"
"303","18884","3","2","70","coolwarm","2.42","231.55","1","0.249364","0.24","1","3","4298","500"
"303","18885","3","3","71","coolwarm","2.42","231.55","1","0.22901","0.23","1","2","4220","118"
"303","18886","3","3","72","coolwarm","2.42","231.55","1","0.249706","0.24","1","2","6409","126"
"303","18887","4","1","73","rainbowcie","4.6","453.83","1","0.232327","0.23","1","1","4109","78"
"303","18888","4","1","74","rainbowcie","4.6","453.83","0","0","0","1","99","5064","75"
"303","18889","4","1","75","rainbowcie","4.6","453.83","1","0.211855","0.21","0","1","6791","127"
"303","18890","4","2","76","rainbowcie","4.6","453.83","0","0","0","1","99","3345","82"
"303","18891","4","3","77","rainbowcie","4.6","453.83","0","0","0","1","99","3188","62"
"303","18892","4","4","78","rainbowcie","4.6","453.83","0","0","0","1","99","2504","72"
"303","18893","4","5","79","rainbowcie","4.6","453.83","0","0","0","0","2","9177","68"
"303","18894","4","1","80","rainbowcie","4.6","453.83","0","0","0","1","99","4236","66"
"303","18895","4","6","81","rainbowcie","4.6","453.83","0","0","0","1","99","4944","88"
"303","18896","4","1","82","rainbowcie","4.6","453.83","1","0.230955","0.24","1","4","8067","249"
"303","18897","4","1","83","rainbowcie","4.6","453.83","1","0.257601","0.26","1","2","8481","460"
"303","18898","4","2","84","rainbowcie","4.6","453.83","1","0.205397","0.21","1","2","2612","137"
"303","18899","4","2","85","rainbowcie","4.6","453.83","1","0.234894","0.24","1","1","3459","365"
"303","18900","4","2","86","rainbowcie","4.6","453.83","1","0.223119","0.23","1","2","5140","72"
"303","18901","4","7","87","rainbowcie","4.6","453.83","0","0","0","1","99","4038","75"
"303","18902","4","8","88","rainbowcie","4.6","453.83","0","0","0","0","3","3554","91"
"303","18903","4","3","89","rainbowcie","4.6","453.83","1","0.243442","0.24","1","4","2394","89"
"303","18904","4","3","90","rainbowcie","4.6","453.83","1","0.225018","0.23","1","4","5560","926"
"303","18905","4","2","91","rainbowcie","4.6","453.83","1","0.260194","0.26","1","3","2771","91"
"303","18906","4","3","92","rainbowcie","4.6","453.83","1","0.256057","0.26","1","4","5140","182"
"303","18907","4","3","93","rainbowcie","4.6","453.83","1","0.216907","0.21","1","2","2415","148"
"303","18908","4","9","94","rainbowcie","4.6","453.83","0","0","0","0","2","2648","90"
"303","18909","4","10","95","rainbowcie","4.6","453.83","0","0","0","1","99","3647","67"
"303","18910","4","11","96","rainbowcie","4.6","453.83","0","0","0","0","2","5510","71"
"307","18911","1","1","1","coolwarm","2.42","231.55","1","0.239646","0.23","0","1","4187","644"
"307","18912","1","1","2","coolwarm","2.42","231.55","1","0.267567","0.26","0","99","2614","270"
"307","18913","1","1","3","coolwarm","2.42","231.55","0","0","0","0","2","2988","126"
"307","18914","1","2","4","coolwarm","2.42","231.55","1","0.2507","0.26","1","3","2521","191"
"307","18915","1","2","5","coolwarm","2.42","231.55","0","0","0","1","99","1853","122"
"307","18916","1","3","6","coolwarm","2.42","231.55","0","0","0","1","99","1145","104"
"307","18917","1","4","7","coolwarm","2.42","231.55","0","0","0","1","99","1950","145"
"307","18918","1","5","8","coolwarm","2.42","231.55","0","0","0","1","99","1688","126"
"307","18919","1","1","9","coolwarm","2.42","231.55","1","0.201777","0.21","0","99","1998","571"
"307","18920","1","6","10","coolwarm","2.42","231.55","0","0","0","1","99","3129","157"
"307","18921","1","2","11","coolwarm","2.42","231.55","1","0.214783","0.21","1","4","1279","243"
"307","18922","1","1","12","coolwarm","2.42","231.55","1","0.248872","0.24","0","3","3176","916"
"307","18923","1","7","13","coolwarm","2.42","231.55","0","0","0","0","4","1573","140"
"307","18924","1","1","14","coolwarm","2.42","231.55","0","0","0","0","4","2055","151"
"307","18925","1","2","15","coolwarm","2.42","231.55","0","0","0","0","2","2060","152"
"307","18926","1","2","16","coolwarm","2.42","231.55","1","0.221997","0.23","0","99","1333","209"
"307","18927","1","3","17","coolwarm","2.42","231.55","1","0.228579","0.23","1","3","1654","161"
"307","18928","1","2","18","coolwarm","2.42","231.55","1","0.236114","0.24","0","99","1521","161"
"307","18929","1","8","19","coolwarm","2.42","231.55","0","0","0","1","99","1197","126"
"307","18930","1","3","20","coolwarm","2.42","231.55","1","0.236773","0.24","0","99","1156","481"
"307","18931","1","9","21","coolwarm","2.42","231.55","0","0","0","0","2","1086","126"
"307","18932","1","3","22","coolwarm","2.42","231.55","1","0.257377","0.26","1","1","1229","184"
"307","18933","1","10","23","coolwarm","2.42","231.55","0","0","0","1","99","1958","147"
"307","18934","1","3","24","coolwarm","2.42","231.55","1","0.205247","0.21","1","2","2162","499"
"307","18935","2","1","25","rainbowcie","4.6","453.83","1","0.251519","0.26","0","2","1778","754"
"307","18936","2","1","26","rainbowcie","4.6","453.83","0","0","0","0","3","1157","109"
"307","18937","2","1","27","rainbowcie","4.6","453.83","0","0","0","1","99","1292","121"
"307","18938","2","1","28","rainbowcie","4.6","453.83","1","0.2345","0.23","1","3","1173","166"
"307","18939","2","2","29","rainbowcie","4.6","453.83","0","0","0","0","1","1459","106"
"307","18940","2","3","30","rainbowcie","4.6","453.83","0","0","0","1","99","1294","125"
"307","18941","2","2","31","rainbowcie","4.6","453.83","1","0.254126","0.26","0","2","1757","154"
"307","18942","2","4","32","rainbowcie","4.6","453.83","0","0","0","0","3","1110","106"
"307","18943","2","1","33","rainbowcie","4.6","453.83","1","0.240237","0.24","0","99","1470","463"
"307","18944","2","1","34","rainbowcie","4.6","453.83","1","0.206141","0.21","1","3","924","171"
"307","18945","2","2","35","rainbowcie","4.6","453.83","1","0.236513","0.23","1","4","984","452"
"307","18946","2","5","36","rainbowcie","4.6","453.83","0","0","0","1","99","2398","146"
"307","18947","2","6","37","rainbowcie","4.6","453.83","0","0","0","1","99","1181","125"
"307","18948","2","7","38","rainbowcie","4.6","453.83","0","0","0","1","99","1780","107"
"307","18949","2","8","39","rainbowcie","4.6","453.83","0","0","0","0","3","1860","126"
"307","18950","2","2","40","rainbowcie","4.6","453.83","1","0.240114","0.24","1","1","4284","212"
"307","18951","2","3","41","rainbowcie","4.6","453.83","1","0.246077","0.24","0","99","2125","393"
"307","18952","2","2","42","rainbowcie","4.6","453.83","1","0.20285","0.21","0","4","3229","793"
"307","18953","2","3","43","rainbowcie","4.6","453.83","1","0.2142","0.21","0","99","1313","915"
"307","18954","2","9","44","rainbowcie","4.6","453.83","0","0","0","1","99","1444","97"
"307","18955","2","3","45","rainbowcie","4.6","453.83","1","0.254931","0.26","1","4","1860","225"
"307","18956","2","10","46","rainbowcie","4.6","453.83","0","0","0","1","99","1638","100"
"307","18957","2","11","47","rainbowcie","4.6","453.83","0","0","0","1","99","1398","154"
"307","18958","2","3","48","rainbowcie","4.6","453.83","1","0.229805","0.23","0","99","1082","1120"
"307","18959","3","1","49","blues","1.2","109.44","0","0","0","1","99","2348","150"
"307","18960","3","1","50","blues","1.2","109.44","1","0.209947","0.21","1","2","1550","187"
"307","18961","3","1","51","blues","1.2","109.44","1","0.256559","0.26","0","99","1473","686"
"307","18962","3","2","52","blues","1.2","109.44","0","0","0","1","99","1478","103"
"307","18963","3","3","53","blues","1.2","109.44","0","0","0","1","99","1002","121"
"307","18964","3","2","54","blues","1.2","109.44","1","0.217891","0.21","1","1","1464","732"
"307","18965","3","4","55","blues","1.2","109.44","0","0","0","1","99","950","105"
"307","18966","3","5","56","blues","1.2","109.44","0","0","0","1","99","940","120"
"307","18967","3","3","57","blues","1.2","109.44","1","0.218296","0.21","1","4","2707","123"
"307","18968","3","2","58","blues","1.2","109.44","1","0.267126","0.26","1","3","1135","456"
"307","18969","3","6","59","blues","1.2","109.44","0","0","0","0","1","2637","106"
"307","18970","3","1","60","blues","1.2","109.44","1","0.238357","0.24","0","99","1424","579"
"307","18971","3","7","61","blues","1.2","109.44","0","0","0","1","99","2006","101"
"307","18972","3","8","62","blues","1.2","109.44","0","0","0","1","99","1587","123"
"307","18973","3","9","63","blues","1.2","109.44","0","0","0","1","99","1086","155"
"307","18974","3","3","64","blues","1.2","109.44","1","0.262029","0.26","1","4","2996","496"
"307","18975","3","1","65","blues","1.2","109.44","1","0.230169","0.23","0","99","1058","371"
"307","18976","3","2","66","blues","1.2","109.44","1","0.221365","0.23","0","99","1028","1797"
"307","18977","3","1","67","blues","1.2","109.44","0","0","0","1","99","993","146"
"307","18978","3","2","68","blues","1.2","109.44","1","0.237137","0.24","0","99","1026","315"
"307","18979","3","10","69","blues","1.2","109.44","0","0","0","1","99","784","123"
"307","18980","3","3","70","blues","1.2","109.44","1","0.226797","0.23","1","1","1878","472"
"307","18981","3","3","71","blues","1.2","109.44","1","0.234648","0.24","0","99","2882","259"
"307","18982","3","11","72","blues","1.2","109.44","0","0","0","1","99","1042","145"
"307","18983","4","1","73","viridis","2.75","217.31","0","0","0","0","4","1786","145"
"307","18984","4","2","74","viridis","2.75","217.31","0","0","0","1","99","1021","100"
"307","18985","4","3","75","viridis","2.75","217.31","0","0","0","1","99","918","121"
"307","18986","4","1","76","viridis","2.75","217.31","1","0.230109","0.24","0","99","813","101"
"307","18987","4","1","77","viridis","2.75","217.31","1","0.233061","0.23","0","99","1401","871"
"307","18988","4","2","78","viridis","2.75","217.31","1","0.238271","0.23","0","99","1013","833"
"307","18989","4","2","79","viridis","2.75","217.31","1","0.231923","0.24","0","99","886","1133"
"307","18990","4","1","80","viridis","2.75","217.31","1","0.217921","0.21","0","99","882","121"
"307","18991","4","1","81","viridis","2.75","217.31","1","0.263666","0.26","1","2","1659","125"
"307","18992","4","3","82","viridis","2.75","217.31","1","0.226675","0.23","0","99","873","531"
"307","18993","4","4","83","viridis","2.75","217.31","0","0","0","1","99","1050","96"
"307","18994","4","5","84","viridis","2.75","217.31","0","0","0","1","99","922","121"
"307","18995","4","6","85","viridis","2.75","217.31","0","0","0","1","99","994","125"
"307","18996","4","7","86","viridis","2.75","217.31","0","0","0","1","99","1533","145"
"307","18997","4","3","87","viridis","2.75","217.31","1","0.248955","0.24","1","4","3723","353"
"307","18998","4","2","88","viridis","2.75","217.31","1","0.26701","0.26","0","99","1573","386"
"307","18999","4","2","89","viridis","2.75","217.31","1","0.205284","0.21","0","3","4122","1059"
"307","19000","4","8","90","viridis","2.75","217.31","0","0","0","1","99","1461","119"
"307","19001","4","9","91","viridis","2.75","217.31","0","0","0","1","99","3236","149"
"307","19002","4","10","92","viridis","2.75","217.31","0","0","0","1","99","1114","99"
"307","19003","4","3","93","viridis","2.75","217.31","1","0.260643","0.26","1","1","1298","197"
"307","19004","4","3","94","viridis","2.75","217.31","1","0.211831","0.21","0","99","1250","212"
"307","19005","4","11","95","viridis","2.75","217.31","0","0","0","1","99","1396","123"
"307","19006","4","12","96","viridis","2.75","217.31","0","0","0","1","99","1274","122"
"306","19103","1","1","1","rainbowcie","4.6","453.83","1","0.241029","0.24","1","2","24590","618"
"306","19104","1","1","2","rainbowcie","4.6","453.83","1","0.231203","0.23","1","1","3769","155"
"306","19105","1","2","3","rainbowcie","4.6","453.83","1","0.244474","0.24","1","4","2492","187"
"306","19106","1","2","4","rainbowcie","4.6","453.83","1","0.224482","0.23","0","99","2256","152"
"306","19107","1","1","5","rainbowcie","4.6","453.83","0","0","0","0","1","2438","67"
"306","19108","1","2","6","rainbowcie","4.6","453.83","0","0","0","1","99","1994","67"
"306","19109","1","3","7","rainbowcie","4.6","453.83","0","0","0","0","2","3097","78"
"306","19110","1","1","8","rainbowcie","4.6","453.83","1","0.266449","0.26","1","4","1839","309"
"306","19111","1","4","9","rainbowcie","4.6","453.83","0","0","0","1","99","2120","67"
"306","19112","1","1","10","rainbowcie","4.6","453.83","1","0.206505","0.21","1","2","2899","141"
"306","19113","1","2","11","rainbowcie","4.6","453.83","1","0.264262","0.26","1","1","3672","1130"
"306","19114","1","2","12","rainbowcie","4.6","453.83","1","0.203381","0.21","1","2","2501","93"
"306","19115","1","3","13","rainbowcie","4.6","453.83","1","0.244854","0.24","1","3","5125","399"
"306","19116","1","5","14","rainbowcie","4.6","453.83","0","0","0","1","99","2483","70"
"306","19117","1","3","15","rainbowcie","4.6","453.83","1","0.20478","0.21","1","1","4668","58"
"306","19118","1","3","16","rainbowcie","4.6","453.83","1","0.222595","0.23","0","99","1778","201"
"306","19119","1","1","17","rainbowcie","4.6","453.83","0","0","0","1","99","3754","57"
"306","19120","1","6","18","rainbowcie","4.6","453.83","0","0","0","1","99","3545","65"
"306","19121","1","3","19","rainbowcie","4.6","453.83","1","0.256953","0.26","1","4","1722","350"
"306","19122","1","7","20","rainbowcie","4.6","453.83","0","0","0","1","99","4522","78"
"306","19123","1","8","21","rainbowcie","4.6","453.83","0","0","0","1","99","3553","71"
"306","19124","1","9","22","rainbowcie","4.6","453.83","0","0","0","1","99","2465","58"
"306","19125","1","10","23","rainbowcie","4.6","453.83","0","0","0","1","99","3288","57"
"306","19126","1","11","24","rainbowcie","4.6","453.83","0","0","0","1","99","4648","66"
"306","19127","2","1","25","viridis","2.75","217.31","0","0","0","1","99","4864","63"
"306","19128","2","2","26","viridis","2.75","217.31","0","0","0","1","99","4968","65"
"306","19129","2","3","27","viridis","2.75","217.31","0","0","0","0","1","4102","61"
"306","19130","2","1","28","viridis","2.75","217.31","1","0.230763","0.23","1","4","2993","69"
"306","19131","2","4","29","viridis","2.75","217.31","0","0","0","1","99","4712","76"
"306","19132","2","5","30","viridis","2.75","217.31","0","0","0","1","99","2728","75"
"306","19133","2","6","31","viridis","2.75","217.31","0","0","0","1","99","3337","67"
"306","19134","2","7","32","viridis","2.75","217.31","0","0","0","1","99","6216","84"
"306","19135","2","1","33","viridis","2.75","217.31","1","0.241752","0.24","1","3","2606","94"
"306","19136","2","8","34","viridis","2.75","217.31","0","0","0","1","99","3351","57"
"306","19137","2","1","35","viridis","2.75","217.31","1","0.258788","0.26","0","2","9223","786"
"306","19138","2","2","36","viridis","2.75","217.31","1","0.238645","0.23","1","4","2923","103"
"306","19139","2","1","37","viridis","2.75","217.31","0","0","0","0","1","2676","57"
"306","19140","2","9","38","viridis","2.75","217.31","0","0","0","0","1","5212","78"
"306","19141","2","10","39","viridis","2.75","217.31","0","0","0","0","4","3943","67"
"306","19142","2","1","40","viridis","2.75","217.31","1","0.215225","0.21","0","99","3475","112"
"306","19143","2","2","41","viridis","2.75","217.31","1","0.263894","0.26","0","99","7469","195"
"306","19144","2","2","42","viridis","2.75","217.31","1","0.233117","0.24","0","1","2599","67"
"306","19145","2","3","43","viridis","2.75","217.31","1","0.246847","0.24","1","2","3448","239"
"306","19146","2","2","44","viridis","2.75","217.31","1","0.206034","0.21","1","1","3145","139"
"306","19147","2","3","45","viridis","2.75","217.31","1","0.229579","0.23","1","2","3008","547"
"306","19148","2","11","46","viridis","2.75","217.31","0","0","0","1","99","2245","65"
"306","19149","2","3","47","viridis","2.75","217.31","1","0.200799","0.21","0","99","4245","57"
"306","19150","2","3","48","viridis","2.75","217.31","1","0.268028","0.26","1","3","3033","566"
"306","19151","3","1","49","blues","1.2","109.44","1","0.231339","0.24","1","1","2708","102"
"306","19152","3","1","50","blues","1.2","109.44","1","0.216284","0.21","1","1","4258","166"
"306","19153","3","1","51","blues","1.2","109.44","1","0.236982","0.23","1","2","2963","174"
"306","19154","3","1","52","blues","1.2","109.44","0","0","0","1","99","1998","68"
"306","19155","3","1","53","blues","1.2","109.44","1","0.258968","0.26","0","99","2803","153"
"306","19156","3","2","54","blues","1.2","109.44","0","0","0","1","99","2735","92"
"306","19157","3","2","55","blues","1.2","109.44","1","0.205347","0.21","0","99","7094","184"
"306","19158","3","3","56","blues","1.2","109.44","0","0","0","1","99","2149","88"
"306","19159","3","4","57","blues","1.2","109.44","0","0","0","0","1","2512","76"
"306","19160","3","2","58","blues","1.2","109.44","1","0.252177","0.26","0","4","3344","163"
"306","19161","3","2","59","blues","1.2","109.44","1","0.224821","0.23","0","99","2563","209"
"306","19162","3","2","60","blues","1.2","109.44","1","0.244481","0.24","0","99","4275","225"
"306","19163","3","5","61","blues","1.2","109.44","0","0","0","1","99","2312","68"
"306","19164","3","3","62","blues","1.2","109.44","1","0.206152","0.21","1","4","6423","466"
"306","19165","3","6","63","blues","1.2","109.44","0","0","0","1","99","1978","68"
"306","19166","3","7","64","blues","1.2","109.44","0","0","0","1","99","2826","73"
"306","19167","3","8","65","blues","1.2","109.44","0","0","0","1","99","4121","66"
"306","19168","3","3","66","blues","1.2","109.44","1","0.265498","0.26","0","99","4475","95"
"306","19169","3","3","67","blues","1.2","109.44","1","0.224953","0.23","1","2","3252","270"
"306","19170","3","9","68","blues","1.2","109.44","0","0","0","0","3","3428","65"
"306","19171","3","1","69","blues","1.2","109.44","0","0","0","1","99","2316","56"
"306","19172","3","10","70","blues","1.2","109.44","0","0","0","1","99","3167","56"
"306","19173","3","3","71","blues","1.2","109.44","1","0.246763","0.24","0","99","3742","107"
"306","19174","3","11","72","blues","1.2","109.44","0","0","0","1","99","2168","66"
"306","19175","4","1","73","coolwarm","2.42","231.55","1","0.232937","0.23","1","2","1640","150"
"306","19176","4","1","74","coolwarm","2.42","231.55","0","0","0","0","2","2979","71"
"306","19177","4","1","75","coolwarm","2.42","231.55","1","0.268071","0.26","1","4","2743","863"
"306","19178","4","2","76","coolwarm","2.42","231.55","0","0","0","0","2","2321","70"
"306","19179","4","3","77","coolwarm","2.42","231.55","0","0","0","1","99","4675","57"
"306","19180","4","2","78","coolwarm","2.42","231.55","1","0.227822","0.23","1","1","3127","418"
"306","19181","4","4","79","coolwarm","2.42","231.55","0","0","0","1","99","2086","83"
"306","19182","4","5","80","coolwarm","2.42","231.55","0","0","0","1","99","3827","67"
"306","19183","4","1","81","coolwarm","2.42","231.55","1","0.212172","0.21","0","99","3161","69"
"306","19184","4","6","82","coolwarm","2.42","231.55","0","0","0","0","1","3366","57"
"306","19185","4","1","83","coolwarm","2.42","231.55","1","0.234147","0.24","1","4","3013","69"
"306","19186","4","2","84","coolwarm","2.42","231.55","1","0.2074","0.21","1","1","1996","229"
"306","19187","4","1","85","coolwarm","2.42","231.55","0","0","0","1","99","2359","55"
"306","19188","4","2","86","coolwarm","2.42","231.55","1","0.237312","0.24","0","99","2893","150"
"306","19189","4","3","87","coolwarm","2.42","231.55","1","0.224763","0.23","1","3","2855","70"
"306","19190","4","7","88","coolwarm","2.42","231.55","0","0","0","1","99","3135","66"
"306","19191","4","3","89","coolwarm","2.42","231.55","1","0.233373","0.24","1","2","2333","336"
"306","19192","4","8","90","coolwarm","2.42","231.55","0","0","0","1","99","1933","77"
"306","19193","4","9","91","coolwarm","2.42","231.55","0","0","0","1","99","2993","82"
"306","19194","4","10","92","coolwarm","2.42","231.55","0","0","0","1","99","1928","65"
"306","19195","4","3","93","coolwarm","2.42","231.55","1","0.216152","0.21","1","2","2699","97"
"306","19196","4","2","94","coolwarm","2.42","231.55","1","0.259372","0.26","1","3","2194","360"
"306","19197","4","3","95","coolwarm","2.42","231.55","1","0.26367","0.26","1","3","2507","82"
"306","19198","4","11","96","coolwarm","2.42","231.55","0","0","0","1","99","2523","76"
"308","19199","1","1","1","rainbowcie","4.6","453.83","1","0.264318","0.26","0","1","7872","245"
"308","19200","1","1","2","rainbowcie","4.6","453.83","1","0.218577","0.21","1","3","3689","68"
"308","19201","1","1","3","rainbowcie","4.6","453.83","0","0","0","1","99","4031","75"
"308","19202","1","2","4","rainbowcie","4.6","453.83","1","0.218116","0.21","1","1","4965","170"
"308","19203","1","1","5","rainbowcie","4.6","453.83","1","0.236004","0.24","1","3","3304","138"
"308","19204","1","2","6","rainbowcie","4.6","453.83","0","0","0","0","4","3734","53"
"308","19205","1","2","7","rainbowcie","4.6","453.83","1","0.260913","0.26","1","2","4055","403"
"308","19206","1","3","8","rainbowcie","4.6","453.83","0","0","0","0","4","6568","47"
"308","19207","1","4","9","rainbowcie","4.6","453.83","0","0","0","0","4","7139","49"
"308","19208","1","1","10","rainbowcie","4.6","453.83","1","0.223831","0.23","1","3","2698","267"
"308","19209","1","2","11","rainbowcie","4.6","453.83","1","0.23233","0.23","0","99","3204","46"
"308","19210","1","5","12","rainbowcie","4.6","453.83","0","0","0","1","99","2793","53"
"308","19211","1","3","13","rainbowcie","4.6","453.83","1","0.229705","0.23","1","1","4660","46"
"308","19212","1","6","14","rainbowcie","4.6","453.83","0","0","0","1","99","2901","58"
"308","19213","1","7","15","rainbowcie","4.6","453.83","0","0","0","0","2","6776","62"
"308","19214","1","1","16","rainbowcie","4.6","453.83","0","0","0","1","99","3253","54"
"308","19215","1","2","17","rainbowcie","4.6","453.83","1","0.235839","0.24","1","3","3126","159"
"308","19216","1","3","18","rainbowcie","4.6","453.83","1","0.236508","0.24","1","3","2047","227"
"308","19217","1","3","19","rainbowcie","4.6","453.83","1","0.203783","0.21","0","99","7402","312"
"308","19218","1","8","20","rainbowcie","4.6","453.83","0","0","0","0","2","4317","54"
"308","19219","1","9","21","rainbowcie","4.6","453.83","0","0","0","0","2","4067","54"
"308","19220","1","3","22","rainbowcie","4.6","453.83","1","0.252448","0.26","1","3","6064","202"
"308","19221","1","10","23","rainbowcie","4.6","453.83","0","0","0","1","99","3497","46"
"308","19222","1","11","24","rainbowcie","4.6","453.83","0","0","0","1","99","5352","54"
"308","19223","2","1","25","viridis","2.75","217.31","1","0.2039","0.21","0","99","4428","76"
"308","19224","2","1","26","viridis","2.75","217.31","0","0","0","1","99","2059","54"
"308","19225","2","2","27","viridis","2.75","217.31","1","0.21515","0.21","1","1","2596","49"
"308","19226","2","1","28","viridis","2.75","217.31","1","0.263521","0.26","1","1","5537","106"
"308","19227","2","1","29","viridis","2.75","217.31","1","0.228264","0.23","1","2","2873","310"
"308","19228","2","2","30","viridis","2.75","217.31","0","0","0","1","99","2418","53"
"308","19229","2","3","31","viridis","2.75","217.31","0","0","0","0","2","2441","47"
"308","19230","2","2","32","viridis","2.75","217.31","1","0.231686","0.23","1","4","4816","165"
"308","19231","2","4","33","viridis","2.75","217.31","0","0","0","0","1","1960","61"
"308","19232","2","5","34","viridis","2.75","217.31","0","0","0","1","99","3840","48"
"308","19233","2","3","35","viridis","2.75","217.31","1","0.201085","0.21","0","99","1633","203"
"308","19234","2","2","36","viridis","2.75","217.31","1","0.265162","0.26","1","1","7116","293"
"308","19235","2","6","37","viridis","2.75","217.31","0","0","0","1","99","2272","53"
"308","19236","2","1","38","viridis","2.75","217.31","1","0.232645","0.24","1","3","4691","65"
"308","19237","2","2","39","viridis","2.75","217.31","1","0.233268","0.24","1","3","6090","72"
"308","19238","2","7","40","viridis","2.75","217.31","0","0","0","0","1","6484","53"
