subjectid,responseid,block,trial,stimulus,hasDecoy,colormap,distance,requestedDistance,correct,responseTime,generationTime,Design,Name_Length,LAB_Length
37,2037,1,1,1,1,blues,0.339109,0.34,0,7741,336,singlehue,1.2,109.44
37,2038,1,1,2,1,blues,0.126473,0.13,0,3391,90,singlehue,1.2,109.44
37,2039,1,1,3,1,blues,0.225125,0.23,1,5054,140,singlehue,1.2,109.44
37,2040,1,1,4,1,blues,0.218535,0.21,1,2750,133,singlehue,1.2,109.44
37,2041,1,1,5,1,blues,0.166305,0.16,0,2321,166,singlehue,1.2,109.44
37,2042,1,1,6,1,blues,0.180464,0.19,0,3995,507,singlehue,1.2,109.44
37,2043,1,1,7,1,blues,0.292272,0.285,0,2286,241,singlehue,1.2,109.44
37,2044,1,2,8,1,blues,0.230516,0.23,0,2233,127,singlehue,1.2,109.44
37,2045,1,1,9,1,blues,0.101533,0.11,1,5890,100,singlehue,1.2,109.44
37,2046,1,1,10,1,blues,0.320543,0.32,1,2844,246,singlehue,1.2,109.44
37,2047,1,2,11,1,blues,0.160014,0.16,0,2444,274,singlehue,1.2,109.44
37,2048,1,2,12,1,blues,0.342902,0.34,0,2769,173,singlehue,1.2,109.44
37,2049,1,1,13,1,blues,0.290211,0.3,1,4124,116,singlehue,1.2,109.44
37,2050,1,2,14,1,blues,0.106835,0.11,1,2063,246,singlehue,1.2,109.44
37,2051,1,2,15,1,blues,0.300613,0.3,1,4023,265,singlehue,1.2,109.44
37,2052,1,2,16,1,blues,0.196816,0.19,0,1653,112,singlehue,1.2,109.44
37,2053,1,1,17,1,blues,0.262549,0.26,0,1723,573,singlehue,1.2,109.44
37,2054,1,2,18,1,blues,0.265886,0.26,0,2538,305,singlehue,1.2,109.44
37,2055,1,2,19,1,blues,0.284072,0.285,1,1434,271,singlehue,1.2,109.44
37,2056,1,2,20,1,blues,0.219159,0.21,0,2320,133,singlehue,1.2,109.44
37,2057,1,2,21,1,blues,0.1352,0.13,0,2502,73,singlehue,1.2,109.44
37,2058,1,2,22,1,blues,0.326454,0.32,0,4177,253,singlehue,1.2,109.44
37,2059,2,1,23,1,rainbowcie,0.349005,0.34,0,8811,281,rainbow,4.6,453.83
37,2060,2,1,24,1,rainbowcie,0.279906,0.285,0,2626,118,rainbow,4.6,453.83
37,2061,2,1,25,1,rainbowcie,0.168408,0.16,0,3240,356,rainbow,4.6,453.83
37,2062,2,2,26,1,rainbowcie,0.163944,0.16,1,4862,87,rainbow,4.6,453.83
37,2063,2,1,27,1,rainbowcie,0.313957,0.32,1,1698,169,rainbow,4.6,453.83
37,2064,2,1,28,1,rainbowcie,0.193049,0.19,0,4590,257,rainbow,4.6,453.83
37,2065,2,1,29,1,rainbowcie,0.203142,0.21,0,3411,338,rainbow,4.6,453.83
37,2066,2,2,30,1,rainbowcie,0.277968,0.285,0,2443,622,rainbow,4.6,453.83
37,2067,2,1,31,1,rainbowcie,0.125145,0.13,1,1613,78,rainbow,4.6,453.83
37,2068,2,2,32,1,rainbowcie,0.34515,0.34,1,4690,76,rainbow,4.6,453.83
37,2069,2,2,33,1,rainbowcie,0.132006,0.13,1,2456,143,rainbow,4.6,453.83
37,2070,2,1,34,1,rainbowcie,0.22525,0.23,1,2948,132,rainbow,4.6,453.83
37,2071,2,2,35,1,rainbowcie,0.195315,0.19,1,6199,133,rainbow,4.6,453.83
37,2072,2,1,36,1,rainbowcie,0.2606,0.26,1,1375,79,rainbow,4.6,453.83
37,2073,2,3,37,1,rainbowcie,0.340481,0.34,1,2311,75,rainbow,4.6,453.83
37,2074,2,2,38,1,rainbowcie,0.328927,0.32,0,3201,76,rainbow,4.6,453.83
37,2075,2,1,39,1,rainbowcie,0.104226,0.11,0,3420,204,rainbow,4.6,453.83
37,2076,2,2,40,1,rainbowcie,0.257401,0.26,1,6017,151,rainbow,4.6,453.83
37,2077,2,2,41,1,rainbowcie,0.2149,0.21,0,3251,337,rainbow,4.6,453.83
37,2078,2,1,42,1,rainbowcie,0.297054,0.3,1,6786,789,rainbow,4.6,453.83
37,2079,2,2,43,1,rainbowcie,0.290886,0.3,1,3565,135,rainbow,4.6,453.83
37,2080,2,2,44,1,rainbowcie,0.233388,0.23,1,1974,67,rainbow,4.6,453.83
37,2081,3,1,45,1,plasma,0.114598,0.11,0,3160,111,multihue,3.44,224.82
37,2082,3,1,46,1,plasma,0.301996,0.3,0,4077,143,multihue,3.44,224.82
37,2083,3,1,47,1,plasma,0.336741,0.34,0,2270,86,multihue,3.44,224.82
37,2084,3,1,48,1,plasma,0.228456,0.23,0,2578,120,multihue,3.44,224.82
37,2085,3,1,49,1,plasma,0.195822,0.19,0,2841,496,multihue,3.44,224.82
37,2086,3,1,50,1,plasma,0.161563,0.16,0,1891,77,multihue,3.44,224.82
37,2087,3,2,51,1,plasma,0.338315,0.34,1,1399,256,multihue,3.44,224.82
37,2088,3,2,52,1,plasma,0.303511,0.3,1,3569,157,multihue,3.44,224.82
37,2089,3,1,53,1,plasma,0.209512,0.21,1,1725,107,multihue,3.44,224.82
37,2090,3,1,54,1,plasma,0.325066,0.32,1,2456,201,multihue,3.44,224.82
37,2091,3,2,55,1,plasma,0.221674,0.23,0,2670,169,multihue,3.44,224.82
37,2092,3,2,56,1,plasma,0.327815,0.32,1,1896,374,multihue,3.44,224.82
37,2093,3,1,57,1,plasma,0.122156,0.13,1,1663,115,multihue,3.44,224.82
37,2094,3,1,58,1,plasma,0.251051,0.26,0,2956,161,multihue,3.44,224.82
37,2095,3,2,59,1,plasma,0.129909,0.13,0,2335,204,multihue,3.44,224.82
37,2096,3,2,60,1,plasma,0.258794,0.26,1,2958,119,multihue,3.44,224.82
37,2097,3,2,61,1,plasma,0.201379,0.21,0,2736,276,multihue,3.44,224.82
37,2098,3,2,62,1,plasma,0.199513,0.19,1,2614,163,multihue,3.44,224.82
37,2099,3,1,63,1,plasma,0.291098,0.285,1,3446,247,multihue,3.44,224.82
37,2100,3,2,64,1,plasma,0.112056,0.11,0,2113,129,multihue,3.44,224.82
37,2101,3,3,65,1,plasma,0.108279,0.11,1,2060,157,multihue,3.44,224.82
37,2102,3,2,66,1,plasma,0.278716,0.285,1,1403,114,multihue,3.44,224.82
37,2103,4,1,67,1,greyred,0.162078,0.16,0,2810,126,divergent,2.57,163.89
37,2104,4,1,68,1,greyred,0.292676,0.285,0,2733,84,divergent,2.57,163.89
37,2105,4,1,69,1,greyred,0.310754,0.32,0,1068,216,divergent,2.57,163.89
37,2106,4,1,70,1,greyred,0.115485,0.11,0,2046,144,divergent,2.57,163.89
37,2107,4,2,71,1,greyred,0.166357,0.16,1,2227,178,divergent,2.57,163.89
37,2108,4,1,72,1,greyred,0.331828,0.34,0,1855,640,divergent,2.57,163.89
37,2109,4,2,73,1,greyred,0.108768,0.11,1,1850,69,divergent,2.57,163.89
37,2110,4,1,74,1,greyred,0.181464,0.19,0,2666,245,divergent,2.57,163.89
37,2111,4,1,75,1,greyred,0.264716,0.26,1,2050,82,divergent,2.57,163.89
37,2112,4,2,76,1,greyred,0.331142,0.34,0,4652,182,divergent,2.57,163.89
37,2113,4,2,77,1,greyred,0.316759,0.32,0,1648,117,divergent,2.57,163.89
37,2114,4,1,78,1,greyred,0.301762,0.3,1,4273,163,divergent,2.57,163.89
37,2115,4,2,79,1,greyred,0.261577,0.26,0,1348,83,divergent,2.57,163.89
37,2116,4,1,80,1,greyred,0.12712,0.13,0,2454,89,divergent,2.57,163.89
37,2117,4,1,81,1,greyred,0.201813,0.21,0,2434,512,divergent,2.57,163.89
37,2118,4,2,82,1,greyred,0.211201,0.21,1,1970,81,divergent,2.57,163.89
37,2119,4,1,83,1,greyred,0.230501,0.23,0,3012,226,divergent,2.57,163.89
37,2120,4,2,84,1,greyred,0.225422,0.23,0,2421,108,divergent,2.57,163.89
37,2121,4,3,85,1,greyred,0.161416,0.16,0,1578,261,divergent,2.57,163.89
37,2122,4,2,86,1,greyred,0.191962,0.19,0,3443,221,divergent,2.57,163.89
37,2123,4,2,87,1,greyred,0.293095,0.3,0,1771,217,divergent,2.57,163.89
37,2124,4,2,88,1,greyred,0.279018,0.285,0,3351,103,divergent,2.57,163.89
40,2125,1,1,1,1,greyred,0.323844,0.32,1,5645,279,divergent,2.57,163.89
40,2126,1,1,2,1,greyred,0.135004,0.13,0,4643,166,divergent,2.57,163.89
40,2127,1,1,3,1,greyred,0.16382,0.16,1,6259,100,divergent,2.57,163.89
40,2128,1,1,4,1,greyred,0.332139,0.34,1,2838,135,divergent,2.57,163.89
40,2129,1,1,5,1,greyred,0.183104,0.19,0,6086,133,divergent,2.57,163.89
40,2130,1,1,6,1,greyred,0.296883,0.3,1,4964,87,divergent,2.57,163.89
40,2131,1,2,7,1,greyred,0.195938,0.19,1,5220,167,divergent,2.57,163.89
40,2132,1,2,8,1,greyred,0.127709,0.13,0,4858,90,divergent,2.57,163.89
40,2133,1,1,9,1,greyred,0.229789,0.23,1,2870,265,divergent,2.57,163.89
40,2134,1,2,10,1,greyred,0.158314,0.16,1,5824,373,divergent,2.57,163.89
40,2135,1,2,11,1,greyred,0.334524,0.34,1,1352,494,divergent,2.57,163.89
40,2136,1,1,12,1,greyred,0.281475,0.285,1,5704,566,divergent,2.57,163.89
40,2137,1,2,13,1,greyred,0.301144,0.3,1,2632,88,divergent,2.57,163.89
40,2138,1,2,14,1,greyred,0.222206,0.23,0,1978,102,divergent,2.57,163.89
40,2139,1,1,15,1,greyred,0.102373,0.11,0,2040,81,divergent,2.57,163.89
40,2140,1,1,16,1,greyred,0.267231,0.26,1,1676,184,divergent,2.57,163.89
40,2141,1,1,17,1,greyred,0.219251,0.21,1,4865,458,divergent,2.57,163.89
40,2142,1,2,18,1,greyred,0.106979,0.11,0,3565,169,divergent,2.57,163.89
40,2143,1,2,19,1,greyred,0.269173,0.26,1,2982,157,divergent,2.57,163.89
40,2144,1,2,20,1,greyred,0.206427,0.21,0,3276,165,divergent,2.57,163.89
40,2145,1,2,21,1,greyred,0.323526,0.32,1,1603,86,divergent,2.57,163.89
40,2146,1,2,22,1,greyred,0.282091,0.285,1,1273,412,divergent,2.57,163.89
40,2147,2,1,23,1,plasma,0.324518,0.32,1,1657,159,multihue,3.44,224.82
40,2148,2,2,24,1,plasma,0.316919,0.32,0,3732,134,multihue,3.44,224.82
40,2149,2,1,25,1,plasma,0.281376,0.285,1,2805,844,multihue,3.44,224.82
40,2150,2,1,26,1,plasma,0.107445,0.11,0,3326,159,multihue,3.44,224.82
40,2151,2,1,27,1,plasma,0.348392,0.34,1,1136,234,multihue,3.44,224.82
40,2152,2,1,28,1,plasma,0.134723,0.13,1,1745,86,multihue,3.44,224.82
40,2153,2,1,29,1,plasma,0.226099,0.23,1,2113,437,multihue,3.44,224.82
40,2154,2,2,30,1,plasma,0.334222,0.34,0,2223,359,multihue,3.44,224.82
40,2155,2,2,31,1,plasma,0.121427,0.13,0,3503,162,multihue,3.44,224.82
40,2156,2,1,32,1,plasma,0.308162,0.3,1,2440,121,multihue,3.44,224.82
40,2157,2,2,33,1,plasma,0.291309,0.285,1,3629,353,multihue,3.44,224.82
40,2158,2,1,34,1,plasma,0.181504,0.19,0,3951,284,multihue,3.44,224.82
40,2159,2,2,35,1,plasma,0.295254,0.3,1,1498,84,multihue,3.44,224.82
40,2160,2,1,36,1,plasma,0.215556,0.21,1,2144,135,multihue,3.44,224.82
40,2161,2,1,37,1,plasma,0.253252,0.26,1,2314,81,multihue,3.44,224.82
40,2162,2,2,38,1,plasma,0.26487,0.26,1,1265,116,multihue,3.44,224.82
40,2163,2,1,39,1,plasma,0.157093,0.16,0,2040,285,multihue,3.44,224.82
40,2164,2,2,40,1,plasma,0.239813,0.23,0,2178,444,multihue,3.44,224.82
40,2165,2,2,41,1,plasma,0.108162,0.11,0,1578,178,multihue,3.44,224.82
40,2166,2,2,42,1,plasma,0.185848,0.19,0,2668,134,multihue,3.44,224.82
40,2167,2,3,43,1,plasma,0.329668,0.32,1,1927,327,multihue,3.44,224.82
40,2168,2,2,44,1,plasma,0.210169,0.21,0,3446,79,multihue,3.44,224.82
40,2169,3,1,45,1,blues,0.156185,0.16,1,3341,564,singlehue,1.2,109.44
40,2170,3,1,46,1,blues,0.254618,0.26,1,2347,275,singlehue,1.2,109.44
40,2171,3,1,47,1,blues,0.348629,0.34,1,2476,132,singlehue,1.2,109.44
40,2172,3,2,48,1,blues,0.251885,0.26,0,3473,129,singlehue,1.2,109.44
40,2173,3,1,49,1,blues,0.299255,0.3,1,3672,83,singlehue,1.2,109.44
40,2174,3,1,50,1,blues,0.114155,0.11,0,2515,94,singlehue,1.2,109.44
40,2175,3,1,51,1,blues,0.287431,0.285,1,3879,295,singlehue,1.2,109.44
40,2176,3,1,52,1,blues,0.130317,0.13,1,5098,609,singlehue,1.2,109.44
40,2177,3,1,53,1,blues,0.205913,0.21,0,2716,450,singlehue,1.2,109.44
40,2178,3,2,54,1,blues,0.100184,0.11,0,1836,78,singlehue,1.2,109.44
40,2179,3,2,55,1,blues,0.131827,0.13,1,2718,1025,singlehue,1.2,109.44
40,2180,3,2,56,1,blues,0.300407,0.3,1,2037,307,singlehue,1.2,109.44
40,2181,3,2,57,1,blues,0.168965,0.16,0,2290,237,singlehue,1.2,109.44
40,2182,3,1,58,1,blues,0.180062,0.19,0,2053,86,singlehue,1.2,109.44
40,2183,3,2,59,1,blues,0.338604,0.34,0,2001,85,singlehue,1.2,109.44
40,2184,3,2,60,1,blues,0.19112,0.19,0,1885,194,singlehue,1.2,109.44
40,2185,3,2,61,1,blues,0.287589,0.285,1,1324,946,singlehue,1.2,109.44
40,2186,3,1,62,1,blues,0.237135,0.23,1,2608,454,singlehue,1.2,109.44
40,2187,3,1,63,1,blues,0.317631,0.32,1,3445,207,singlehue,1.2,109.44
40,2188,3,3,64,1,blues,0.167692,0.16,1,1884,141,singlehue,1.2,109.44
40,2189,3,2,65,1,blues,0.219951,0.21,0,4777,83,singlehue,1.2,109.44
40,2190,3,2,66,1,blues,0.228795,0.23,0,3048,302,singlehue,1.2,109.44
40,2191,4,1,67,1,turbo,0.329146,0.32,1,1989,214,rainbow,5.25,411.05
40,2192,4,1,68,1,turbo,0.155309,0.16,1,2080,175,rainbow,5.25,411.05
40,2193,4,1,69,1,turbo,0.197142,0.19,0,2344,926,rainbow,5.25,411.05
40,2194,4,2,70,1,turbo,0.188473,0.19,0,2003,562,rainbow,5.25,411.05
40,2195,4,1,71,1,turbo,0.298199,0.3,1,2477,183,rainbow,5.25,411.05
40,2196,4,1,72,1,turbo,0.115389,0.11,1,1894,424,rainbow,5.25,411.05
40,2197,4,1,73,1,turbo,0.26419,0.26,1,3128,526,rainbow,5.25,411.05
40,2198,4,2,74,1,turbo,0.296296,0.3,0,1849,277,rainbow,5.25,411.05
40,2199,4,1,75,1,turbo,0.22323,0.23,1,2329,309,rainbow,5.25,411.05
40,2200,4,1,76,1,turbo,0.205459,0.21,0,1389,258,rainbow,5.25,411.05
40,2201,4,2,77,1,turbo,0.256629,0.26,1,3600,164,rainbow,5.25,411.05
40,2202,4,2,78,1,turbo,0.111735,0.11,0,5551,89,rainbow,5.25,411.05
40,2203,4,1,79,1,turbo,0.287806,0.285,0,5746,208,rainbow,5.25,411.05
40,2204,4,2,80,1,turbo,0.208438,0.21,0,2142,236,rainbow,5.25,411.05
40,2205,4,2,81,1,turbo,0.152063,0.16,0,1564,251,rainbow,5.25,411.05
40,2206,4,1,82,1,turbo,0.134943,0.13,0,1743,121,rainbow,5.25,411.05
40,2207,4,2,83,1,turbo,0.126385,0.13,0,2102,529,rainbow,5.25,411.05
40,2208,4,2,84,1,turbo,0.322918,0.32,1,2111,96,rainbow,5.25,411.05
40,2209,4,1,85,1,turbo,0.3491,0.34,1,2469,193,rainbow,5.25,411.05
40,2210,4,3,86,1,turbo,0.325053,0.32,0,2461,287,rainbow,5.25,411.05
40,2211,4,2,87,1,turbo,0.331701,0.34,1,1806,377,rainbow,5.25,411.05
40,2212,4,2,88,1,turbo,0.286145,0.285,1,1555,135,rainbow,5.25,411.05
39,2301,1,1,1,1,purples,0.115925,0.11,1,8846,591,singlehue,0.54,63.79
39,2302,1,1,2,1,purples,0.278323,0.285,1,3717,639,singlehue,0.54,63.79
39,2303,1,1,3,1,purples,0.134969,0.13,1,4962,192,singlehue,0.54,63.79
39,2304,1,1,4,1,purples,0.153642,0.16,1,8197,649,singlehue,0.54,63.79
39,2305,1,2,5,1,purples,0.134053,0.13,1,2787,233,singlehue,0.54,63.79
39,2306,1,1,6,1,purples,0.34166,0.34,1,5736,288,singlehue,0.54,63.79
39,2307,1,2,7,1,purples,0.332442,0.34,1,2766,214,singlehue,0.54,63.79
39,2308,1,1,8,1,purples,0.30202,0.3,1,8027,907,singlehue,0.54,63.79
39,2309,1,1,9,1,purples,0.269227,0.26,1,3067,308,singlehue,0.54,63.79
39,2310,1,1,10,1,purples,0.187295,0.19,1,2186,159,singlehue,0.54,63.79
39,2311,1,2,11,1,purples,0.15775,0.16,1,3573,275,singlehue,0.54,63.79
39,2312,1,1,12,1,purples,0.222262,0.23,1,4499,540,singlehue,0.54,63.79
39,2313,1,2,13,1,purples,0.250633,0.26,1,6840,318,singlehue,0.54,63.79
39,2314,1,1,14,1,purples,0.206796,0.21,0,3761,696,singlehue,0.54,63.79
39,2315,1,2,15,1,purples,0.185044,0.19,1,6176,576,singlehue,0.54,63.79
39,2316,1,2,16,1,purples,0.203807,0.21,0,2855,219,singlehue,0.54,63.79
39,2317,1,2,17,1,purples,0.301451,0.3,1,7999,465,singlehue,0.54,63.79
39,2318,1,1,18,1,purples,0.320653,0.32,1,2228,429,singlehue,0.54,63.79
39,2319,1,2,19,1,purples,0.222879,0.23,0,1780,274,singlehue,0.54,63.79
39,2320,1,2,20,1,purples,0.291798,0.285,0,4952,319,singlehue,0.54,63.79
39,2321,1,2,21,1,purples,0.32328,0.32,1,2418,829,singlehue,0.54,63.79
39,2322,1,2,22,1,purples,0.106688,0.11,1,13697,336,singlehue,0.54,63.79
39,2323,2,1,23,1,rainbowcie,0.119728,0.11,1,6632,399,rainbow,4.6,453.83
39,2324,2,1,24,1,rainbowcie,0.126135,0.13,0,7997,360,rainbow,4.6,453.83
39,2325,2,1,25,1,rainbowcie,0.181935,0.19,1,1778,632,rainbow,4.6,453.83
39,2326,2,1,26,1,rainbowcie,0.256724,0.26,1,6572,373,rainbow,4.6,453.83
39,2327,2,1,27,1,rainbowcie,0.222562,0.23,1,1797,313,rainbow,4.6,453.83
39,2328,2,1,28,1,rainbowcie,0.294989,0.285,0,7931,1296,rainbow,4.6,453.83
39,2329,2,2,29,1,rainbowcie,0.112838,0.11,0,8865,451,rainbow,4.6,453.83
39,2330,2,2,30,1,rainbowcie,0.189831,0.19,0,2262,434,rainbow,4.6,453.83
39,2331,2,1,31,1,rainbowcie,0.329911,0.32,1,1803,850,rainbow,4.6,453.83
39,2332,2,1,32,1,rainbowcie,0.161282,0.16,0,3848,209,rainbow,4.6,453.83
39,2333,2,2,33,1,rainbowcie,0.230473,0.23,0,10089,370,rainbow,4.6,453.83
39,2334,2,1,34,1,rainbowcie,0.34755,0.34,1,2937,167,rainbow,4.6,453.83
39,2335,2,2,35,1,rainbowcie,0.313706,0.32,1,4657,278,rainbow,4.6,453.83
39,2336,2,2,36,1,rainbowcie,0.155708,0.16,0,3235,461,rainbow,4.6,453.83
39,2337,2,2,37,1,rainbowcie,0.252894,0.26,1,5539,437,rainbow,4.6,453.83
39,2338,2,1,38,1,rainbowcie,0.204493,0.21,0,3996,349,rainbow,4.6,453.83
39,2339,2,1,39,1,rainbowcie,0.296241,0.3,1,2931,164,rainbow,4.6,453.83
39,2340,2,2,40,1,rainbowcie,0.215227,0.21,1,6991,331,rainbow,4.6,453.83
39,2341,2,2,41,1,rainbowcie,0.30712,0.3,1,3036,181,rainbow,4.6,453.83
39,2342,2,2,42,1,rainbowcie,0.290381,0.285,1,2069,151,rainbow,4.6,453.83
39,2343,2,2,43,1,rainbowcie,0.13704,0.13,0,15539,593,rainbow,4.6,453.83
39,2344,2,3,44,1,rainbowcie,0.10732,0.11,1,5272,138,rainbow,4.6,453.83
39,2345,3,1,45,1,coolwarm,0.332143,0.34,1,3044,502,divergent,2.42,231.55
39,2346,3,2,46,1,coolwarm,0.344579,0.34,1,3332,82,divergent,2.42,231.55
39,2347,3,1,47,1,coolwarm,0.124199,0.13,0,5436,479,divergent,2.42,231.55
39,2348,3,1,48,1,coolwarm,0.154107,0.16,1,2235,151,divergent,2.42,231.55
39,2349,3,1,49,1,coolwarm,0.26574,0.26,1,1913,720,divergent,2.42,231.55
39,2350,3,1,50,1,coolwarm,0.289655,0.285,1,1969,1270,divergent,2.42,231.55
39,2351,3,1,51,1,coolwarm,0.183695,0.19,1,4679,338,divergent,2.42,231.55
39,2352,3,1,52,1,coolwarm,0.203165,0.21,1,6766,551,divergent,2.42,231.55
39,2353,3,2,53,1,coolwarm,0.27639,0.285,1,8346,514,divergent,2.42,231.55
39,2354,3,1,54,1,coolwarm,0.222023,0.23,1,4187,136,divergent,2.42,231.55
39,2355,3,2,55,1,coolwarm,0.235417,0.23,1,6415,144,divergent,2.42,231.55
39,2356,3,2,56,1,coolwarm,0.19031,0.19,1,2531,733,divergent,2.42,231.55
39,2357,3,2,57,1,coolwarm,0.212584,0.21,0,6233,99,divergent,2.42,231.55
39,2358,3,1,58,1,coolwarm,0.312758,0.32,1,3878,758,divergent,2.42,231.55
39,2359,3,1,59,1,coolwarm,0.307582,0.3,1,3864,1079,divergent,2.42,231.55
39,2360,3,3,60,1,coolwarm,0.330283,0.34,1,1782,254,divergent,2.42,231.55
39,2361,3,2,61,1,coolwarm,0.311374,0.32,1,2645,234,divergent,2.42,231.55
39,2362,3,2,62,1,coolwarm,0.15326,0.16,1,2987,391,divergent,2.42,231.55
39,2363,3,1,63,1,coolwarm,0.118049,0.11,0,6209,141,divergent,2.42,231.55
39,2364,3,2,64,1,coolwarm,0.123248,0.13,0,8405,156,divergent,2.42,231.55
39,2365,3,2,65,1,coolwarm,0.26812,0.26,0,14603,701,divergent,2.42,231.55
39,2366,3,2,66,1,coolwarm,0.300086,0.3,1,1706,569,divergent,2.42,231.55
39,2367,4,1,67,1,redpurple,0.104609,0.11,0,10826,452,multihue,1.48,142.76
39,2368,4,1,68,1,redpurple,0.291758,0.285,1,2982,572,multihue,1.48,142.76
39,2369,4,2,69,1,redpurple,0.281158,0.285,1,2152,229,multihue,1.48,142.76
39,2370,4,1,70,1,redpurple,0.329741,0.32,1,4750,671,multihue,1.48,142.76
39,2371,4,2,71,1,redpurple,0.118735,0.11,1,5995,461,multihue,1.48,142.76
39,2372,4,1,72,1,redpurple,0.162581,0.16,1,3163,186,multihue,1.48,142.76
39,2373,4,1,73,1,redpurple,0.215739,0.21,0,3776,624,multihue,1.48,142.76
39,2374,4,1,74,1,redpurple,0.307116,0.3,1,4369,153,multihue,1.48,142.76
39,2375,4,2,75,1,redpurple,0.165227,0.16,0,4625,169,multihue,1.48,142.76
39,2376,4,2,76,1,redpurple,0.302231,0.3,1,3671,324,multihue,1.48,142.76
39,2377,4,2,77,1,redpurple,0.325073,0.32,0,2288,135,multihue,1.48,142.76
39,2378,4,1,78,1,redpurple,0.336682,0.34,1,2748,270,multihue,1.48,142.76
39,2379,4,2,79,1,redpurple,0.215057,0.21,1,4650,311,multihue,1.48,142.76
39,2380,4,2,80,1,redpurple,0.330314,0.34,0,4783,433,multihue,1.48,142.76
39,2381,4,1,81,1,redpurple,0.182166,0.19,1,7052,158,multihue,1.48,142.76
39,2382,4,1,82,1,redpurple,0.26765,0.26,1,3428,95,multihue,1.48,142.76
39,2383,4,2,83,1,redpurple,0.184299,0.19,0,5346,139,multihue,1.48,142.76
39,2384,4,1,84,1,redpurple,0.231942,0.23,0,4195,482,multihue,1.48,142.76
39,2385,4,3,85,1,redpurple,0.108586,0.11,0,8123,132,multihue,1.48,142.76
39,2386,4,1,86,1,redpurple,0.137369,0.13,1,4416,361,multihue,1.48,142.76
39,2387,4,2,87,1,redpurple,0.255062,0.26,1,4713,453,multihue,1.48,142.76
39,2388,4,2,88,1,redpurple,0.231698,0.23,1,5794,1378,multihue,1.48,142.76
41,2389,1,1,1,1,rainbowjet,0.124255,0.13,1,9472,277,rainbow,4.78,502
41,2390,1,1,2,1,rainbowjet,0.305971,0.3,1,3196,189,rainbow,4.78,502
41,2391,1,2,3,1,rainbowjet,0.123065,0.13,0,3054,157,rainbow,4.78,502
41,2392,1,1,4,1,rainbowjet,0.269108,0.26,1,1671,119,rainbow,4.78,502
41,2393,1,1,5,1,rainbowjet,0.232685,0.23,1,2429,220,rainbow,4.78,502
41,2394,1,2,6,1,rainbowjet,0.231991,0.23,1,2659,411,rainbow,4.78,502
41,2395,1,1,7,1,rainbowjet,0.281375,0.285,0,7420,55,rainbow,4.78,502
41,2396,1,1,8,1,rainbowjet,0.197227,0.19,1,2653,192,rainbow,4.78,502
41,2397,1,2,9,1,rainbowjet,0.258379,0.26,1,3245,67,rainbow,4.78,502
41,2398,1,1,10,1,rainbowjet,0.216124,0.21,1,1255,243,rainbow,4.78,502
41,2399,1,2,11,1,rainbowjet,0.204705,0.21,1,8155,175,rainbow,4.78,502
41,2400,1,2,12,1,rainbowjet,0.289589,0.285,1,1742,66,rainbow,4.78,502
41,2401,1,1,13,1,rainbowjet,0.333381,0.34,1,1182,344,rainbow,4.78,502
41,2402,1,1,14,1,rainbowjet,0.158362,0.16,0,7344,88,rainbow,4.78,502
41,2403,1,1,15,1,rainbowjet,0.324855,0.32,1,1630,1056,rainbow,4.78,502
41,2404,1,2,16,1,rainbowjet,0.151902,0.16,0,8692,121,rainbow,4.78,502
41,2405,1,2,17,1,rainbowjet,0.194581,0.19,1,3565,90,rainbow,4.78,502
41,2406,1,2,18,1,rainbowjet,0.294175,0.3,1,1679,312,rainbow,4.78,502
41,2407,1,2,19,1,rainbowjet,0.343461,0.34,1,2517,229,rainbow,4.78,502
41,2408,1,1,20,1,rainbowjet,0.101606,0.11,0,9269,73,rainbow,4.78,502
41,2409,1,2,21,1,rainbowjet,0.108887,0.11,0,4206,64,rainbow,4.78,502
41,2410,1,2,22,1,rainbowjet,0.313946,0.32,1,2770,261,rainbow,4.78,502
41,2411,2,1,23,1,redpurple,0.124006,0.13,1,4536,64,multihue,1.48,142.76
41,2412,2,1,24,1,redpurple,0.28341,0.285,1,2501,99,multihue,1.48,142.76
41,2413,2,1,25,1,redpurple,0.306167,0.3,1,2656,64,multihue,1.48,142.76
41,2414,2,1,26,1,redpurple,0.20448,0.21,0,2096,379,multihue,1.48,142.76
41,2415,2,1,27,1,redpurple,0.266516,0.26,1,2307,403,multihue,1.48,142.76
41,2416,2,2,28,1,redpurple,0.138038,0.13,0,5151,66,multihue,1.48,142.76
41,2417,2,1,29,1,redpurple,0.22711,0.23,1,8724,593,multihue,1.48,142.76
41,2418,2,1,30,1,redpurple,0.320006,0.32,1,3335,662,multihue,1.48,142.76
41,2419,2,1,31,1,redpurple,0.197264,0.19,1,27316,63,multihue,1.48,142.76
41,2420,2,2,32,1,redpurple,0.202202,0.21,1,3021,99,multihue,1.48,142.76
41,2421,2,1,33,1,redpurple,0.102758,0.11,0,3109,168,multihue,1.48,142.76
41,2422,2,1,34,1,redpurple,0.165698,0.16,0,6213,95,multihue,1.48,142.76
41,2423,2,2,35,1,redpurple,0.251034,0.26,1,4150,337,multihue,1.48,142.76
41,2424,2,2,36,1,redpurple,0.199462,0.19,1,5741,65,multihue,1.48,142.76
41,2425,2,2,37,1,redpurple,0.279865,0.285,1,4621,179,multihue,1.48,142.76
41,2426,2,2,38,1,redpurple,0.221609,0.23,0,2154,795,multihue,1.48,142.76
41,2427,2,2,39,1,redpurple,0.166666,0.16,1,3205,75,multihue,1.48,142.76
41,2428,2,1,40,1,redpurple,0.34839,0.34,1,2803,450,multihue,1.48,142.76
41,2429,2,2,41,1,redpurple,0.108882,0.11,0,6610,292,multihue,1.48,142.76
41,2430,2,2,42,1,redpurple,0.311357,0.32,1,5061,56,multihue,1.48,142.76
41,2431,2,2,43,1,redpurple,0.300564,0.3,1,3298,283,multihue,1.48,142.76
41,2432,2,2,44,1,redpurple,0.339908,0.34,1,1580,74,multihue,1.48,142.76
41,2433,3,1,45,1,purples,0.126991,0.13,0,5192,74,singlehue,0.54,63.79
41,2434,3,1,46,1,purples,0.290571,0.3,1,2029,202,singlehue,0.54,63.79
41,2435,3,1,47,1,purples,0.157871,0.16,1,3549,64,singlehue,0.54,63.79
41,2436,3,1,48,1,purples,0.280547,0.285,0,4408,161,singlehue,0.54,63.79
41,2437,3,1,49,1,purples,0.209647,0.21,0,6686,75,singlehue,0.54,63.79
41,2438,3,1,50,1,purples,0.11433,0.11,1,6869,109,singlehue,0.54,63.79
41,2439,3,1,51,1,purples,0.3231,0.32,1,2293,211,singlehue,0.54,63.79
41,2440,3,2,52,1,purples,0.162247,0.16,1,6955,378,singlehue,0.54,63.79
41,2441,3,1,53,1,purples,0.192328,0.19,1,2467,140,singlehue,0.54,63.79
41,2442,3,2,54,1,purples,0.12392,0.13,0,8870,57,singlehue,0.54,63.79
41,2443,3,2,55,1,purples,0.292669,0.3,1,6781,91,singlehue,0.54,63.79
41,2444,3,2,56,1,purples,0.18594,0.19,0,3661,74,singlehue,0.54,63.79
41,2445,3,1,57,1,purples,0.341079,0.34,1,1829,165,singlehue,0.54,63.79
41,2446,3,2,58,1,purples,0.32308,0.32,1,1277,108,singlehue,0.54,63.79
41,2447,3,1,59,1,purples,0.22674,0.23,1,2781,154,singlehue,0.54,63.79
41,2448,3,1,60,1,purples,0.268901,0.26,0,1982,64,singlehue,0.54,63.79
41,2449,3,2,61,1,purples,0.216861,0.21,1,2054,154,singlehue,0.54,63.79
41,2450,3,2,62,1,purples,0.116407,0.11,1,4334,135,singlehue,0.54,63.79
41,2451,3,2,63,1,purples,0.275313,0.285,1,3245,141,singlehue,0.54,63.79
41,2452,3,2,64,1,purples,0.257283,0.26,1,4926,125,singlehue,0.54,63.79
41,2453,3,2,65,1,purples,0.225944,0.23,1,4173,181,singlehue,0.54,63.79
41,2454,3,3,66,1,purples,0.128054,0.13,1,1733,90,singlehue,0.54,63.79
41,2455,4,1,67,1,coolwarm,0.347178,0.34,1,1831,287,divergent,2.42,231.55
41,2456,4,1,68,1,coolwarm,0.209006,0.21,1,2397,157,divergent,2.42,231.55
41,2457,4,1,69,1,coolwarm,0.194827,0.19,1,1918,100,divergent,2.42,231.55
41,2458,4,2,70,1,coolwarm,0.207052,0.21,0,4813,64,divergent,2.42,231.55
41,2459,4,1,71,1,coolwarm,0.154907,0.16,0,4365,223,divergent,2.42,231.55
41,2460,4,1,72,1,coolwarm,0.305578,0.3,1,2901,72,divergent,2.42,231.55
41,2461,4,1,73,1,coolwarm,0.310098,0.32,1,1559,302,divergent,2.42,231.55
41,2462,4,1,74,1,coolwarm,0.129984,0.13,0,3821,55,divergent,2.42,231.55
41,2463,4,1,75,1,coolwarm,0.292955,0.285,1,3349,135,divergent,2.42,231.55
41,2464,4,1,76,1,coolwarm,0.258645,0.26,1,5853,150,divergent,2.42,231.55
41,2465,4,2,77,1,coolwarm,0.166194,0.16,1,1607,189,divergent,2.42,231.55
41,2466,4,1,78,1,coolwarm,0.11039,0.11,0,5638,56,divergent,2.42,231.55
41,2467,4,2,79,1,coolwarm,0.294859,0.3,1,1909,119,divergent,2.42,231.55
41,2468,4,2,80,1,coolwarm,0.254284,0.26,0,4446,155,divergent,2.42,231.55
41,2469,4,2,81,1,coolwarm,0.276382,0.285,1,2210,300,divergent,2.42,231.55
41,2470,4,2,82,1,coolwarm,0.13366,0.13,1,3965,227,divergent,2.42,231.55
41,2471,4,2,83,1,coolwarm,0.184118,0.19,0,6588,152,divergent,2.42,231.55
41,2472,4,2,84,1,coolwarm,0.119422,0.11,0,7125,207,divergent,2.42,231.55
41,2473,4,1,85,1,coolwarm,0.234246,0.23,0,6359,423,divergent,2.42,231.55
41,2474,4,2,86,1,coolwarm,0.345188,0.34,1,3529,518,divergent,2.42,231.55
41,2475,4,2,87,1,coolwarm,0.323383,0.32,1,1713,325,divergent,2.42,231.55
41,2476,4,2,88,1,coolwarm,0.224046,0.23,0,9942,74,divergent,2.42,231.55
43,2477,1,1,1,1,viridis,0.290022,0.3,1,3390,172,multihue,2.75,217.31
43,2478,1,1,2,1,viridis,0.130021,0.13,0,11364,270,multihue,2.75,217.31
43,2479,1,1,3,1,viridis,0.206927,0.21,1,2036,507,multihue,2.75,217.31
43,2480,1,1,4,1,viridis,0.229627,0.23,1,2948,59,multihue,2.75,217.31
43,2481,1,2,5,1,viridis,0.220075,0.23,1,1516,88,multihue,2.75,217.31
43,2482,1,1,6,1,viridis,0.328707,0.32,1,6519,110,multihue,2.75,217.31
43,2483,1,1,7,1,viridis,0.250325,0.26,0,3268,67,multihue,2.75,217.31
43,2484,1,1,8,1,viridis,0.288487,0.285,1,2805,242,multihue,2.75,217.31
43,2485,1,1,9,1,viridis,0.15956,0.16,1,1853,63,multihue,2.75,217.31
43,2486,1,2,10,1,viridis,0.305178,0.3,0,2186,61,multihue,2.75,217.31
43,2487,1,1,11,1,viridis,0.183759,0.19,0,2307,186,multihue,2.75,217.31
43,2488,1,2,12,1,viridis,0.206597,0.21,0,2504,71,multihue,2.75,217.31
43,2489,1,1,13,1,viridis,0.34187,0.34,1,4090,212,multihue,2.75,217.31
43,2490,1,2,14,1,viridis,0.183193,0.19,0,4107,130,multihue,2.75,217.31
43,2491,1,1,15,1,viridis,0.104349,0.11,1,3217,98,multihue,2.75,217.31
43,2492,1,2,16,1,viridis,0.126513,0.13,0,3349,74,multihue,2.75,217.31
43,2493,1,2,17,1,viridis,0.261984,0.26,1,2122,183,multihue,2.75,217.31
43,2494,1,2,18,1,viridis,0.115137,0.11,0,4569,239,multihue,2.75,217.31
43,2495,1,2,19,1,viridis,0.319503,0.32,1,2357,71,multihue,2.75,217.31
43,2496,1,2,20,1,viridis,0.34271,0.34,1,3223,161,multihue,2.75,217.31
43,2497,1,2,21,1,viridis,0.164719,0.16,1,2973,212,multihue,2.75,217.31
43,2498,1,2,22,1,viridis,0.286923,0.285,1,2235,218,multihue,2.75,217.31
43,2499,2,1,23,1,spectral,0.295361,0.3,1,5357,65,divergent,3.99,218.97
43,2500,2,1,24,1,spectral,0.291067,0.285,0,2991,159,divergent,3.99,218.97
43,2501,2,1,25,1,spectral,0.232917,0.23,1,8108,148,divergent,3.99,218.97
43,2502,2,1,26,1,spectral,0.31408,0.32,1,2272,176,divergent,3.99,218.97
43,2503,2,2,27,1,spectral,0.238294,0.23,0,9120,170,divergent,3.99,218.97
43,2504,2,2,28,1,spectral,0.318045,0.32,1,3823,573,divergent,3.99,218.97
43,2505,2,1,29,1,spectral,0.262137,0.26,1,5159,119,divergent,3.99,218.97
43,2506,2,2,30,1,spectral,0.305517,0.3,1,7472,107,divergent,3.99,218.97
43,2507,2,1,31,1,spectral,0.194234,0.19,0,5909,57,divergent,3.99,218.97
43,2508,2,2,32,1,spectral,0.193264,0.19,1,3191,100,divergent,3.99,218.97
43,2509,2,1,33,1,spectral,0.118865,0.11,0,5063,111,divergent,3.99,218.97
43,2510,2,1,34,1,spectral,0.160995,0.16,1,2141,151,divergent,3.99,218.97
43,2511,2,2,35,1,spectral,0.163344,0.16,0,4046,113,divergent,3.99,218.97
43,2512,2,1,36,1,spectral,0.214837,0.21,1,3910,63,divergent,3.99,218.97
43,2513,2,1,37,1,spectral,0.131884,0.13,1,3429,71,divergent,3.99,218.97
43,2514,2,2,38,1,spectral,0.284226,0.285,1,1684,197,divergent,3.99,218.97
43,2515,2,2,39,1,spectral,0.113017,0.11,0,2748,247,divergent,3.99,218.97
43,2516,2,2,40,1,spectral,0.257496,0.26,1,2656,285,divergent,3.99,218.97
43,2517,2,1,41,1,spectral,0.33786,0.34,1,4317,70,divergent,3.99,218.97
43,2518,2,3,42,1,spectral,0.303696,0.3,1,2387,245,divergent,3.99,218.97
43,2519,2,2,43,1,spectral,0.348862,0.34,1,1764,159,divergent,3.99,218.97
43,2520,2,2,44,1,spectral,0.214253,0.21,1,4554,179,divergent,3.99,218.97
43,2521,3,1,45,1,rainbowcie,0.125797,0.13,1,8427,104,rainbow,4.6,453.83
43,2522,3,1,46,1,rainbowcie,0.208,0.21,1,2601,255,rainbow,4.6,453.83
43,2523,3,1,47,1,rainbowcie,0.342492,0.34,1,2240,419,rainbow,4.6,453.83
43,2524,3,1,48,1,rainbowcie,0.282572,0.285,1,1431,671,rainbow,4.6,453.83
43,2525,3,1,49,1,rainbowcie,0.232453,0.23,1,1976,112,rainbow,4.6,453.83
43,2526,3,1,50,1,rainbowcie,0.157547,0.16,1,2780,364,rainbow,4.6,453.83
43,2527,3,1,51,1,rainbowcie,0.257352,0.26,0,2296,103,rainbow,4.6,453.83
43,2528,3,2,52,1,rainbowcie,0.255455,0.26,1,1234,124,rainbow,4.6,453.83
43,2529,3,2,53,1,rainbowcie,0.330776,0.34,1,3591,111,rainbow,4.6,453.83
43,2530,3,2,54,1,rainbowcie,0.222222,0.23,1,3184,166,rainbow,4.6,453.83
43,2531,3,2,55,1,rainbowcie,0.287905,0.285,1,2458,55,rainbow,4.6,453.83
43,2532,3,1,56,1,rainbowcie,0.184323,0.19,0,6065,79,rainbow,4.6,453.83
43,2533,3,2,57,1,rainbowcie,0.21673,0.21,1,2656,117,rainbow,4.6,453.83
43,2534,3,1,58,1,rainbowcie,0.301222,0.3,1,1673,443,rainbow,4.6,453.83
43,2535,3,1,59,1,rainbowcie,0.11362,0.11,1,4684,281,rainbow,4.6,453.83
43,2536,3,2,60,1,rainbowcie,0.131429,0.13,1,3924,124,rainbow,4.6,453.83
43,2537,3,1,61,1,rainbowcie,0.31114,0.32,1,1386,156,rainbow,4.6,453.83
43,2538,3,2,62,1,rainbowcie,0.196129,0.19,1,7697,88,rainbow,4.6,453.83
43,2539,3,2,63,1,rainbowcie,0.11391,0.11,1,4572,218,rainbow,4.6,453.83
43,2540,3,2,64,1,rainbowcie,0.154111,0.16,0,4407,550,rainbow,4.6,453.83
43,2541,3,2,65,1,rainbowcie,0.326474,0.32,1,2407,296,rainbow,4.6,453.83
43,2542,3,2,66,1,rainbowcie,0.305087,0.3,1,1844,79,rainbow,4.6,453.83
43,2543,4,1,67,1,blues,0.12833,0.13,1,3168,70,singlehue,1.2,109.44
43,2544,4,1,68,1,blues,0.292883,0.285,1,2908,262,singlehue,1.2,109.44
43,2545,4,1,69,1,blues,0.20045,0.21,0,5480,622,singlehue,1.2,109.44
43,2546,4,1,70,1,blues,0.269518,0.26,1,2748,286,singlehue,1.2,109.44
43,2547,4,1,71,1,blues,0.234775,0.23,1,160345,64,singlehue,1.2,109.44
43,2548,4,2,72,1,blues,0.276556,0.285,0,2815,126,singlehue,1.2,109.44
43,2549,4,2,73,1,blues,0.200763,0.21,1,6242,218,singlehue,1.2,109.44
43,2550,4,1,74,1,blues,0.182036,0.19,0,4407,341,singlehue,1.2,109.44
43,2551,4,2,75,1,blues,0.257274,0.26,1,2527,163,singlehue,1.2,109.44
43,2552,4,1,76,1,blues,0.317748,0.32,1,1426,307,singlehue,1.2,109.44
43,2553,4,2,77,1,blues,0.127537,0.13,1,2588,134,singlehue,1.2,109.44
43,2554,4,2,78,1,blues,0.320177,0.32,1,1144,138,singlehue,1.2,109.44
43,2555,4,1,79,1,blues,0.34745,0.34,1,1493,260,singlehue,1.2,109.44
43,2556,4,2,80,1,blues,0.1899,0.19,0,1882,91,singlehue,1.2,109.44
43,2557,4,1,81,1,blues,0.112462,0.11,1,2326,73,singlehue,1.2,109.44
43,2558,4,1,82,1,blues,0.297534,0.3,1,1994,206,singlehue,1.2,109.44
43,2559,4,1,83,1,blues,0.166001,0.16,1,2492,72,singlehue,1.2,109.44
43,2560,4,2,84,1,blues,0.294947,0.3,1,2574,123,singlehue,1.2,109.44
43,2561,4,3,85,1,blues,0.13014,0.13,0,2112,63,singlehue,1.2,109.44
43,2562,4,2,86,1,blues,0.224203,0.23,1,2258,191,singlehue,1.2,109.44
43,2563,4,2,87,1,blues,0.107403,0.11,0,2017,322,singlehue,1.2,109.44
43,2564,4,2,88,1,blues,0.166993,0.16,1,2892,85,singlehue,1.2,109.44
42,2565,1,1,1,1,redpurple,0.180582,0.19,1,15569,193,multihue,1.48,142.76
42,2566,1,1,2,1,redpurple,0.12332,0.13,1,6809,302,multihue,1.48,142.76
42,2567,1,1,3,1,redpurple,0.168126,0.16,0,9720,79,multihue,1.48,142.76
42,2568,1,1,4,1,redpurple,0.283835,0.285,1,7844,84,multihue,1.48,142.76
42,2569,1,2,5,1,redpurple,0.185263,0.19,1,4815,139,multihue,1.48,142.76
42,2570,1,1,6,1,redpurple,0.250058,0.26,1,3312,68,multihue,1.48,142.76
42,2571,1,1,7,1,redpurple,0.346417,0.34,1,2603,269,multihue,1.48,142.76
42,2572,1,1,8,1,redpurple,0.295234,0.3,1,6763,641,multihue,1.48,142.76
42,2573,1,1,9,1,redpurple,0.205266,0.21,1,4236,676,multihue,1.48,142.76
42,2574,1,2,10,1,redpurple,0.285056,0.285,0,3650,208,multihue,1.48,142.76
42,2575,1,1,11,1,redpurple,0.237063,0.23,1,5567,261,multihue,1.48,142.76
42,2576,1,2,12,1,redpurple,0.154131,0.16,0,5650,123,multihue,1.48,142.76
42,2577,1,1,13,1,redpurple,0.325639,0.32,1,2371,82,multihue,1.48,142.76
42,2578,1,2,14,1,redpurple,0.294884,0.3,1,2455,436,multihue,1.48,142.76
42,2579,1,1,15,1,redpurple,0.113696,0.11,1,11721,70,multihue,1.48,142.76
42,2580,1,2,16,1,redpurple,0.201148,0.21,0,15621,569,multihue,1.48,142.76
42,2581,1,2,17,1,redpurple,0.258862,0.26,1,4270,382,multihue,1.48,142.76
42,2582,1,2,18,1,redpurple,0.113803,0.11,1,10201,125,multihue,1.48,142.76
42,2583,1,2,19,1,redpurple,0.324119,0.32,0,13005,198,multihue,1.48,142.76
42,2584,1,2,20,1,redpurple,0.236616,0.23,0,10988,277,multihue,1.48,142.76
42,2585,1,2,21,1,redpurple,0.333238,0.34,1,2696,621,multihue,1.48,142.76
42,2586,1,2,22,1,redpurple,0.128454,0.13,0,3755,124,multihue,1.48,142.76
42,2587,2,1,23,1,coolwarm,0.190178,0.19,0,9945,132,divergent,2.42,231.55
42,2588,2,1,24,1,coolwarm,0.210257,0.21,0,5510,228,divergent,2.42,231.55
42,2589,2,1,25,1,coolwarm,0.23599,0.23,1,4354,700,divergent,2.42,231.55
42,2590,2,1,26,1,coolwarm,0.133505,0.13,0,6878,137,divergent,2.42,231.55
42,2591,2,1,27,1,coolwarm,0.152269,0.16,0,6550,383,divergent,2.42,231.55
42,2592,2,1,28,1,coolwarm,0.325432,0.32,1,3223,166,divergent,2.42,231.55
42,2593,2,2,29,1,coolwarm,0.207562,0.21,0,42150,180,divergent,2.42,231.55
42,2594,2,1,30,1,coolwarm,0.331022,0.34,1,2941,302,divergent,2.42,231.55
42,2595,2,1,31,1,coolwarm,0.290809,0.285,0,5191,79,divergent,2.42,231.55
42,2596,2,2,32,1,coolwarm,0.332125,0.34,1,3379,88,divergent,2.42,231.55
42,2597,2,1,33,1,coolwarm,0.101929,0.11,0,2735,82,divergent,2.42,231.55
42,2598,2,2,34,1,coolwarm,0.183206,0.19,0,11511,214,divergent,2.42,231.55
42,2599,2,1,35,1,coolwarm,0.294673,0.3,1,2357,393,divergent,2.42,231.55
42,2600,2,2,36,1,coolwarm,0.294312,0.3,0,6826,227,divergent,2.42,231.55
42,2601,2,2,37,1,coolwarm,0.323188,0.32,1,6327,423,divergent,2.42,231.55
42,2602,2,2,38,1,coolwarm,0.278762,0.285,0,4568,125,divergent,2.42,231.55
42,2603,2,2,39,1,coolwarm,0.118917,0.11,0,3636,955,divergent,2.42,231.55
42,2604,2,1,40,1,coolwarm,0.260014,0.26,0,3694,190,divergent,2.42,231.55
42,2605,2,2,41,1,coolwarm,0.236513,0.23,1,4033,71,divergent,2.42,231.55
42,2606,2,2,42,1,coolwarm,0.13229,0.13,0,3309,288,divergent,2.42,231.55
42,2607,2,3,43,1,coolwarm,0.189691,0.19,0,2568,270,divergent,2.42,231.55
42,2608,2,2,44,1,coolwarm,0.150051,0.16,0,7080,111,divergent,2.42,231.55
42,2609,3,1,45,1,blues,0.25577,0.26,0,9792,729,singlehue,1.2,109.44
42,2610,3,2,46,1,blues,0.258234,0.26,0,3684,116,singlehue,1.2,109.44
42,2611,3,1,47,1,blues,0.236651,0.23,0,2808,244,singlehue,1.2,109.44
42,2612,3,3,48,1,blues,0.269998,0.26,0,5042,235,singlehue,1.2,109.44
42,2613,3,1,49,1,blues,0.138183,0.13,0,3361,209,singlehue,1.2,109.44
42,2614,3,1,50,1,blues,0.335181,0.34,1,4351,570,singlehue,1.2,109.44
42,2615,3,1,51,1,blues,0.119415,0.11,1,3316,302,singlehue,1.2,109.44
42,2616,3,2,52,1,blues,0.124195,0.13,0,3814,204,singlehue,1.2,109.44
42,2617,3,1,53,1,blues,0.316394,0.32,0,11464,202,singlehue,1.2,109.44
42,2618,3,1,54,1,blues,0.185065,0.19,0,7068,383,singlehue,1.2,109.44
42,2619,3,1,55,1,blues,0.296541,0.3,0,6790,473,singlehue,1.2,109.44
42,2620,3,2,56,1,blues,0.225929,0.23,1,9332,337,singlehue,1.2,109.44
42,2621,3,1,57,1,blues,0.156619,0.16,0,26146,545,singlehue,1.2,109.44
42,2622,3,2,58,1,blues,0.198242,0.19,0,4533,84,singlehue,1.2,109.44
42,2623,3,2,59,1,blues,0.307266,0.3,0,8408,170,singlehue,1.2,109.44
42,2624,3,2,60,1,blues,0.333343,0.34,1,2357,70,singlehue,1.2,109.44
42,2625,3,1,61,1,blues,0.27946,0.285,0,3641,172,singlehue,1.2,109.44
42,2626,3,2,62,1,blues,0.15213,0.16,1,2733,126,singlehue,1.2,109.44
42,2627,3,1,63,1,blues,0.211439,0.21,0,2620,249,singlehue,1.2,109.44
42,2628,3,2,64,1,blues,0.323353,0.32,1,3057,262,singlehue,1.2,109.44
42,2629,3,2,65,1,blues,0.115357,0.11,1,4456,601,singlehue,1.2,109.44
42,2630,3,2,66,1,blues,0.211794,0.21,1,3150,155,singlehue,1.2,109.44
42,2631,4,1,67,1,rainbowcie,0.289891,0.285,1,4145,251,rainbow,4.6,453.83
42,2632,4,1,68,1,rainbowcie,0.139069,0.13,1,10668,331,rainbow,4.6,453.83
42,2633,4,1,69,1,rainbowcie,0.300388,0.3,1,2290,366,rainbow,4.6,453.83
42,2634,4,1,70,1,rainbowcie,0.20168,0.21,0,9864,256,rainbow,4.6,453.83
42,2635,4,1,71,1,rainbowcie,0.192039,0.19,0,6462,163,rainbow,4.6,453.83
42,2636,4,2,72,1,rainbowcie,0.293846,0.285,0,3117,421,rainbow,4.6,453.83
42,2637,4,1,73,1,rainbowcie,0.26158,0.26,0,11692,624,rainbow,4.6,453.83
42,2638,4,2,74,1,rainbowcie,0.208491,0.21,0,5500,83,rainbow,4.6,453.83
42,2639,4,1,75,1,rainbowcie,0.165945,0.16,1,6609,317,rainbow,4.6,453.83
42,2640,4,1,76,1,rainbowcie,0.110133,0.11,0,11995,374,rainbow,4.6,453.83
42,2641,4,3,77,1,rainbowcie,0.280793,0.285,0,4262,97,rainbow,4.6,453.83
42,2642,4,1,78,1,rainbowcie,0.3244,0.32,1,2321,139,rainbow,4.6,453.83
42,2643,4,2,79,1,rainbowcie,0.136851,0.13,0,6976,246,rainbow,4.6,453.83
42,2644,4,1,80,1,rainbowcie,0.3404,0.34,1,4404,442,rainbow,4.6,453.83
42,2645,4,2,81,1,rainbowcie,0.196108,0.19,1,5763,81,rainbow,4.6,453.83
42,2646,4,2,82,1,rainbowcie,0.115829,0.11,1,4978,332,rainbow,4.6,453.83
42,2647,4,2,83,1,rainbowcie,0.310549,0.32,0,6711,2244,rainbow,4.6,453.83
42,2648,4,1,84,1,rainbowcie,0.238799,0.23,1,5238,1310,rainbow,4.6,453.83
42,2649,4,2,85,1,rainbowcie,0.164071,0.16,1,9699,82,rainbow,4.6,453.83
42,2650,4,2,86,1,rainbowcie,0.291741,0.3,1,3968,825,rainbow,4.6,453.83
42,2651,4,2,87,1,rainbowcie,0.347601,0.34,0,9564,282,rainbow,4.6,453.83
42,2652,4,2,88,1,rainbowcie,0.26372,0.26,0,6154,630,rainbow,4.6,453.83
38,2653,1,1,1,1,viridis,0.126145,0.13,0,7794,876,multihue,2.75,217.31
38,2654,1,1,2,1,viridis,0.276315,0.285,1,6674,335,multihue,2.75,217.31
38,2655,1,1,3,1,viridis,0.165302,0.16,0,16146,752,multihue,2.75,217.31
38,2656,1,1,4,1,viridis,0.239342,0.23,1,13058,1386,multihue,2.75,217.31
38,2657,1,1,5,1,viridis,0.118791,0.11,1,5877,130,multihue,2.75,217.31
38,2658,1,1,6,1,viridis,0.335303,0.34,1,7082,379,multihue,2.75,217.31
38,2659,1,1,7,1,viridis,0.297416,0.3,1,6673,2352,multihue,2.75,217.31
38,2660,1,1,8,1,viridis,0.199813,0.19,0,10796,1886,multihue,2.75,217.31
38,2661,1,2,9,1,viridis,0.130714,0.13,0,7407,1585,multihue,2.75,217.31
38,2662,1,1,10,1,viridis,0.211622,0.21,0,5697,399,multihue,2.75,217.31
38,2663,1,1,11,1,viridis,0.311429,0.32,1,3163,857,multihue,2.75,217.31
38,2664,1,2,12,1,viridis,0.216894,0.21,1,4210,164,multihue,2.75,217.31
38,2665,1,2,13,1,viridis,0.284442,0.285,1,2822,470,multihue,2.75,217.31
38,2666,1,2,14,1,viridis,0.312236,0.32,1,2381,1611,multihue,2.75,217.31
38,2667,1,2,15,1,viridis,0.106183,0.11,0,5313,1092,multihue,2.75,217.31
38,2668,1,2,16,1,viridis,0.158619,0.16,0,8689,314,multihue,2.75,217.31
38,2669,1,2,17,1,viridis,0.297963,0.3,1,2349,399,multihue,2.75,217.31
38,2670,1,2,18,1,viridis,0.181151,0.19,1,2901,356,multihue,2.75,217.31
38,2671,1,2,19,1,viridis,0.232785,0.23,1,14917,356,multihue,2.75,217.31
38,2672,1,2,20,1,viridis,0.330313,0.34,1,3232,247,multihue,2.75,217.31
38,2673,1,1,21,1,viridis,0.260401,0.26,1,4836,537,multihue,2.75,217.31
38,2674,1,2,22,1,viridis,0.266052,0.26,1,4324,2955,multihue,2.75,217.31
38,2675,2,1,23,1,spectral,0.131653,0.13,0,4853,356,divergent,3.99,218.97
38,2676,2,1,24,1,spectral,0.115703,0.11,0,11672,205,divergent,3.99,218.97
38,2677,2,1,25,1,spectral,0.317767,0.32,1,4323,982,divergent,3.99,218.97
38,2678,2,2,26,1,spectral,0.317074,0.32,1,3092,644,divergent,3.99,218.97
38,2679,2,1,27,1,spectral,0.167468,0.16,1,19194,431,divergent,3.99,218.97
38,2680,2,1,28,1,spectral,0.204577,0.21,1,15573,1075,divergent,3.99,218.97
38,2681,2,1,29,1,spectral,0.257588,0.26,1,5899,1665,divergent,3.99,218.97
38,2682,2,2,30,1,spectral,0.1316,0.13,1,22539,823,divergent,3.99,218.97
38,2683,2,1,31,1,spectral,0.341757,0.34,1,3995,163,divergent,3.99,218.97
38,2684,2,1,32,1,spectral,0.224033,0.23,1,4288,628,divergent,3.99,218.97
38,2685,2,2,33,1,spectral,0.250389,0.26,1,4131,830,divergent,3.99,218.97
38,2686,2,2,34,1,spectral,0.340852,0.34,1,11184,4158,divergent,3.99,218.97
38,2687,2,1,35,1,spectral,0.304362,0.3,1,4276,600,divergent,3.99,218.97
38,2688,2,1,36,1,spectral,0.194128,0.19,1,3943,657,divergent,3.99,218.97
38,2689,2,1,37,1,spectral,0.286792,0.285,0,15670,1078,divergent,3.99,218.97
38,2690,2,2,38,1,spectral,0.292832,0.285,1,18028,287,divergent,3.99,218.97
38,2691,2,3,39,1,spectral,0.130069,0.13,0,16516,157,divergent,3.99,218.97
38,2692,2,2,40,1,spectral,0.236557,0.23,0,26324,154,divergent,3.99,218.97
38,2693,2,2,41,1,spectral,0.186309,0.19,1,7738,247,divergent,3.99,218.97
38,2694,2,2,42,1,spectral,0.295631,0.3,1,2527,1322,divergent,3.99,218.97
38,2695,2,2,43,1,spectral,0.208498,0.21,1,4073,475,divergent,3.99,218.97
38,2696,2,2,44,1,spectral,0.100048,0.11,0,14546,304,divergent,3.99,218.97
38,2697,3,1,45,1,blues,0.160416,0.16,0,13502,322,singlehue,1.2,109.44
38,2698,3,1,46,1,blues,0.135469,0.13,0,6103,319,singlehue,1.2,109.44
38,2699,3,2,47,1,blues,0.121143,0.13,1,11220,870,singlehue,1.2,109.44
38,2700,3,1,48,1,blues,0.328863,0.32,1,2169,359,singlehue,1.2,109.44
38,2701,3,1,49,1,blues,0.291422,0.3,1,3349,157,singlehue,1.2,109.44
38,2702,3,1,50,1,blues,0.331397,0.34,1,7939,313,singlehue,1.2,109.44
38,2703,3,1,51,1,blues,0.115358,0.11,1,7338,521,singlehue,1.2,109.44
38,2704,3,1,52,1,blues,0.25055,0.26,1,2242,1222,singlehue,1.2,109.44
38,2705,3,1,53,1,blues,0.189151,0.19,1,6336,628,singlehue,1.2,109.44
38,2706,3,2,54,1,blues,0.256292,0.26,0,2855,240,singlehue,1.2,109.44
38,2707,3,2,55,1,blues,0.152421,0.16,0,3098,243,singlehue,1.2,109.44
38,2708,3,1,56,1,blues,0.284483,0.285,1,9119,241,singlehue,1.2,109.44
38,2709,3,1,57,1,blues,0.20946,0.21,0,16280,644,singlehue,1.2,109.44
38,2710,3,2,58,1,blues,0.280142,0.285,1,16705,1524,singlehue,1.2,109.44
38,2711,3,2,59,1,blues,0.330275,0.34,1,9122,121,singlehue,1.2,109.44
38,2712,3,1,60,1,blues,0.226314,0.23,0,7919,126,singlehue,1.2,109.44
38,2713,3,2,61,1,blues,0.185661,0.19,1,4267,760,singlehue,1.2,109.44
38,2714,3,2,62,1,blues,0.103899,0.11,0,11291,716,singlehue,1.2,109.44
38,2715,3,2,63,1,blues,0.316971,0.32,1,2925,534,singlehue,1.2,109.44
38,2716,3,2,64,1,blues,0.306485,0.3,1,3543,1346,singlehue,1.2,109.44
38,2717,3,2,65,1,blues,0.20018,0.21,1,2901,870,singlehue,1.2,109.44
38,2718,3,3,66,1,blues,0.158723,0.16,0,7371,2223,singlehue,1.2,109.44
38,2719,4,1,67,1,turbo,0.235,0.23,0,3857,857,rainbow,5.25,411.05
38,2720,4,1,68,1,turbo,0.196738,0.19,1,7671,125,rainbow,5.25,411.05
38,2721,4,1,69,1,turbo,0.165905,0.16,1,27793,358,rainbow,5.25,411.05
38,2722,4,2,70,1,turbo,0.186338,0.19,1,5400,972,rainbow,5.25,411.05
38,2723,4,2,71,1,turbo,0.230714,0.23,1,12675,197,rainbow,5.25,411.05
38,2724,4,1,72,1,turbo,0.313783,0.32,1,1942,208,rainbow,5.25,411.05
38,2725,4,1,73,1,turbo,0.293123,0.285,1,3954,1888,rainbow,5.25,411.05
38,2726,4,1,74,1,turbo,0.34614,0.34,1,4645,128,rainbow,5.25,411.05
38,2727,4,3,75,1,turbo,0.2283,0.23,1,5835,166,rainbow,5.25,411.05
38,2728,4,1,76,1,turbo,0.128138,0.13,0,7905,157,rainbow,5.25,411.05
38,2729,4,1,77,1,turbo,0.209249,0.21,1,7949,813,rainbow,5.25,411.05
38,2730,4,2,78,1,turbo,0.324145,0.32,1,6987,309,rainbow,5.25,411.05
38,2731,4,2,79,1,turbo,0.343965,0.34,1,5737,817,rainbow,5.25,411.05
38,2732,4,1,80,1,turbo,0.306221,0.3,1,2979,157,rainbow,5.25,411.05
38,2733,4,2,81,1,turbo,0.165002,0.16,1,7215,515,rainbow,5.25,411.05
38,2734,4,1,82,1,turbo,0.100608,0.11,1,4415,159,rainbow,5.25,411.05
38,2735,4,2,83,1,turbo,0.121008,0.13,0,8949,697,rainbow,5.25,411.05
38,2736,4,2,84,1,turbo,0.117361,0.11,0,10694,125,rainbow,5.25,411.05
38,2737,4,2,85,1,turbo,0.201956,0.21,0,4818,953,rainbow,5.25,411.05
38,2738,4,2,86,1,turbo,0.288295,0.285,1,25549,451,rainbow,5.25,411.05
38,2739,4,1,87,1,turbo,0.254634,0.26,1,3678,163,rainbow,5.25,411.05
38,2740,4,2,88,1,turbo,0.262504,0.26,1,4527,450,rainbow,5.25,411.05
35,2741,1,1,1,1,turbo,0.182247,0.19,1,6307,540,rainbow,5.25,411.05
35,2742,1,1,2,1,turbo,0.343752,0.34,1,2414,247,rainbow,5.25,411.05
35,2743,1,1,3,1,turbo,0.251608,0.26,1,5244,99,rainbow,5.25,411.05
35,2744,1,2,4,1,turbo,0.25316,0.26,1,11293,2022,rainbow,5.25,411.05
35,2745,1,1,5,1,turbo,0.28987,0.285,1,12624,431,rainbow,5.25,411.05
35,2746,1,2,6,1,turbo,0.340721,0.34,1,3615,100,rainbow,5.25,411.05
35,2747,1,1,7,1,turbo,0.318357,0.32,1,2314,378,rainbow,5.25,411.05
35,2748,1,1,8,1,turbo,0.210057,0.21,1,3997,203,rainbow,5.25,411.05
35,2749,1,1,9,1,turbo,0.29958,0.3,1,9640,107,rainbow,5.25,411.05
35,2750,1,2,10,1,turbo,0.323264,0.32,1,3218,299,rainbow,5.25,411.05
35,2751,1,1,11,1,turbo,0.1312,0.13,0,10214,99,rainbow,5.25,411.05
35,2752,1,2,12,1,turbo,0.122546,0.13,1,6302,106,rainbow,5.25,411.05
35,2753,1,2,13,1,turbo,0.205296,0.21,1,7717,118,rainbow,5.25,411.05
35,2754,1,1,14,1,turbo,0.222288,0.23,1,2715,330,rainbow,5.25,411.05
35,2755,1,2,15,1,turbo,0.307863,0.3,1,4134,181,rainbow,5.25,411.05
35,2756,1,1,16,1,turbo,0.102087,0.11,1,4205,85,rainbow,5.25,411.05
35,2757,1,2,17,1,turbo,0.279748,0.285,1,4371,842,rainbow,5.25,411.05
35,2758,1,2,18,1,turbo,0.182996,0.19,1,3763,682,rainbow,5.25,411.05
35,2759,1,2,19,1,turbo,0.224469,0.23,1,8045,219,rainbow,5.25,411.05
35,2760,1,1,20,1,turbo,0.157675,0.16,1,11734,117,rainbow,5.25,411.05
35,2761,1,2,21,1,turbo,0.162861,0.16,1,5071,177,rainbow,5.25,411.05
35,2762,1,2,22,1,turbo,0.112799,0.11,1,9925,131,rainbow,5.25,411.05
35,2763,2,1,23,1,blues,0.18636,0.19,0,5891,105,singlehue,1.2,109.44
35,2764,2,1,24,1,blues,0.297571,0.3,1,8296,365,singlehue,1.2,109.44
35,2765,2,1,25,1,blues,0.34361,0.34,1,2485,126,singlehue,1.2,109.44
35,2766,2,1,26,1,blues,0.236123,0.23,1,6076,330,singlehue,1.2,109.44
35,2767,2,1,27,1,blues,0.10688,0.11,0,10230,161,singlehue,1.2,109.44
35,2768,2,1,28,1,blues,0.211906,0.21,0,8622,226,singlehue,1.2,109.44
35,2769,2,1,29,1,blues,0.28828,0.285,1,3390,102,singlehue,1.2,109.44
35,2770,2,2,30,1,blues,0.348208,0.34,1,3442,141,singlehue,1.2,109.44
35,2771,2,2,31,1,blues,0.207121,0.21,0,9397,163,singlehue,1.2,109.44
35,2772,2,1,32,1,blues,0.131935,0.13,1,2886,243,singlehue,1.2,109.44
35,2773,2,2,33,1,blues,0.117649,0.11,0,9421,178,singlehue,1.2,109.44
35,2774,2,1,34,1,blues,0.256952,0.26,1,2350,83,singlehue,1.2,109.44
35,2775,2,1,35,1,blues,0.319061,0.32,1,2462,527,singlehue,1.2,109.44
35,2776,2,1,36,1,blues,0.160189,0.16,0,8170,644,singlehue,1.2,109.44
35,2777,2,2,37,1,blues,0.15059,0.16,0,5870,602,singlehue,1.2,109.44
35,2778,2,2,38,1,blues,0.283709,0.285,1,3538,83,singlehue,1.2,109.44
35,2779,2,2,39,1,blues,0.136122,0.13,0,4068,204,singlehue,1.2,109.44
35,2780,2,2,40,1,blues,0.235856,0.23,1,2756,99,singlehue,1.2,109.44
35,2781,2,2,41,1,blues,0.292356,0.3,1,3935,88,singlehue,1.2,109.44
35,2782,2,2,42,1,blues,0.183865,0.19,1,2893,130,singlehue,1.2,109.44
35,2783,2,2,43,1,blues,0.258751,0.26,1,1734,683,singlehue,1.2,109.44
35,2784,2,3,44,1,blues,0.190928,0.19,1,5957,872,singlehue,1.2,109.44
35,2785,3,1,45,1,greyred,0.319391,0.32,1,2937,93,divergent,2.57,163.89
35,2786,3,1,46,1,greyred,0.153684,0.16,1,4605,943,divergent,2.57,163.89
35,2787,3,1,47,1,greyred,0.217121,0.21,1,2656,379,divergent,2.57,163.89
35,2788,3,1,48,1,greyred,0.250299,0.26,0,7402,444,divergent,2.57,163.89
35,2789,3,1,49,1,greyred,0.293084,0.3,1,5222,221,divergent,2.57,163.89
35,2790,3,2,50,1,greyred,0.200724,0.21,1,4302,223,divergent,2.57,163.89
35,2791,3,1,51,1,greyred,0.126264,0.13,1,6657,294,divergent,2.57,163.89
35,2792,3,1,52,1,greyred,0.337836,0.34,1,8079,1316,divergent,2.57,163.89
35,2793,3,1,53,1,greyred,0.2256,0.23,0,4238,85,divergent,2.57,163.89
35,2794,3,2,54,1,greyred,0.137477,0.13,0,9642,143,divergent,2.57,163.89
35,2795,3,1,55,1,greyred,0.191686,0.19,1,10075,216,divergent,2.57,163.89
35,2796,3,2,56,1,greyred,0.340183,0.34,1,3359,429,divergent,2.57,163.89
35,2797,3,1,57,1,greyred,0.282703,0.285,1,3011,1097,divergent,2.57,163.89
35,2798,3,1,58,1,greyred,0.102531,0.11,0,7440,227,divergent,2.57,163.89
35,2799,3,2,59,1,greyred,0.117009,0.11,0,7787,481,divergent,2.57,163.89
35,2800,3,2,60,1,greyred,0.32441,0.32,1,3222,1119,divergent,2.57,163.89
35,2801,3,2,61,1,greyred,0.293685,0.3,1,4406,164,divergent,2.57,163.89
35,2802,3,2,62,1,greyred,0.18406,0.19,0,12881,906,divergent,2.57,163.89
35,2803,3,2,63,1,greyred,0.252329,0.26,1,3502,118,divergent,2.57,163.89
35,2804,3,2,64,1,greyred,0.169319,0.16,1,8611,1225,divergent,2.57,163.89
35,2805,3,3,65,1,greyred,0.328239,0.32,1,1596,608,divergent,2.57,163.89
35,2806,3,2,66,1,greyred,0.276445,0.285,1,8991,88,divergent,2.57,163.89
35,2807,4,1,67,1,viridis,0.254103,0.26,1,5558,917,multihue,2.75,217.31
35,2808,4,1,68,1,viridis,0.197833,0.19,1,10331,470,multihue,2.75,217.31
35,2809,4,1,69,1,viridis,0.297386,0.3,1,3735,151,multihue,2.75,217.31
35,2810,4,1,70,1,viridis,0.326207,0.32,1,3729,628,multihue,2.75,217.31
35,2811,4,2,71,1,viridis,0.300368,0.3,1,2231,235,multihue,2.75,217.31
35,2812,4,1,72,1,viridis,0.117503,0.11,0,7516,129,multihue,2.75,217.31
35,2813,4,2,73,1,viridis,0.191177,0.19,1,7846,103,multihue,2.75,217.31
35,2814,4,2,74,1,viridis,0.261499,0.26,1,5801,236,multihue,2.75,217.31
35,2815,4,1,75,1,viridis,0.287212,0.285,0,8950,358,multihue,2.75,217.31
35,2816,4,2,76,1,viridis,0.317026,0.32,1,4118,1303,multihue,2.75,217.31
35,2817,4,1,77,1,viridis,0.334046,0.34,1,3692,155,multihue,2.75,217.31
35,2818,4,1,78,1,viridis,0.208947,0.21,1,15344,115,multihue,2.75,217.31
35,2819,4,1,79,1,viridis,0.237702,0.23,1,3686,366,multihue,2.75,217.31
35,2820,4,2,80,1,viridis,0.34167,0.34,1,1877,281,multihue,2.75,217.31
35,2821,4,1,81,1,viridis,0.154249,0.16,1,3438,332,multihue,2.75,217.31
35,2822,4,1,82,1,viridis,0.124622,0.13,0,12019,498,multihue,2.75,217.31
35,2823,4,2,83,1,viridis,0.168281,0.16,1,10214,176,multihue,2.75,217.31
35,2824,4,2,84,1,viridis,0.200232,0.21,1,4020,100,multihue,2.75,217.31
35,2825,4,2,85,1,viridis,0.123364,0.13,1,9842,604,multihue,2.75,217.31
35,2826,4,2,86,1,viridis,0.225642,0.23,0,9285,282,multihue,2.75,217.31
35,2827,4,2,87,1,viridis,0.283821,0.285,1,8295,295,multihue,2.75,217.31
35,2828,4,2,88,1,viridis,0.111099,0.11,1,6072,291,multihue,2.75,217.31
47,2829,1,1,1,1,redpurple,0.209055,0.21,0,12186,190,multihue,1.48,142.76
47,2830,1,1,2,1,redpurple,0.282468,0.285,0,5301,89,multihue,1.48,142.76
47,2831,1,2,3,1,redpurple,0.210314,0.21,0,5685,218,multihue,1.48,142.76
47,2832,1,1,4,1,redpurple,0.339823,0.34,1,4765,205,multihue,1.48,142.76
47,2833,1,1,5,1,redpurple,0.295548,0.3,1,6313,174,multihue,1.48,142.76
47,2834,1,1,6,1,redpurple,0.263362,0.26,1,3539,90,multihue,1.48,142.76
47,2835,1,1,7,1,redpurple,0.108326,0.11,1,7604,82,multihue,1.48,142.76
47,2836,1,1,8,1,redpurple,0.132845,0.13,0,4276,123,multihue,1.48,142.76
47,2837,1,1,9,1,redpurple,0.165481,0.16,1,6661,86,multihue,1.48,142.76
47,2838,1,2,10,1,redpurple,0.281384,0.285,1,6378,276,multihue,1.48,142.76
47,2839,1,2,11,1,redpurple,0.131611,0.13,0,9133,149,multihue,1.48,142.76
47,2840,1,2,12,1,redpurple,0.16051,0.16,0,3757,74,multihue,1.48,142.76
47,2841,1,1,13,1,redpurple,0.183393,0.19,0,3431,293,multihue,1.48,142.76
47,2842,1,1,14,1,redpurple,0.313058,0.32,1,3846,134,multihue,1.48,142.76
47,2843,1,2,15,1,redpurple,0.102469,0.11,0,10317,57,multihue,1.48,142.76
47,2844,1,1,16,1,redpurple,0.224374,0.23,0,5614,149,multihue,1.48,142.76
47,2845,1,2,17,1,redpurple,0.23123,0.23,0,8941,168,multihue,1.48,142.76
47,2846,1,2,18,1,redpurple,0.303747,0.3,1,5972,164,multihue,1.48,142.76
47,2847,1,2,19,1,redpurple,0.314406,0.32,0,3734,55,multihue,1.48,142.76
47,2848,1,2,20,1,redpurple,0.188088,0.19,0,3236,321,multihue,1.48,142.76
47,2849,1,2,21,1,redpurple,0.254128,0.26,1,5022,54,multihue,1.48,142.76
47,2850,1,2,22,1,redpurple,0.346348,0.34,0,3053,107,multihue,1.48,142.76
47,2851,2,1,23,1,coolwarm,0.201557,0.21,0,4528,86,divergent,2.42,231.55
47,2852,2,1,24,1,coolwarm,0.278348,0.285,1,3789,227,divergent,2.42,231.55
47,2853,2,1,25,1,coolwarm,0.260667,0.26,1,5573,55,divergent,2.42,231.55
47,2854,2,1,26,1,coolwarm,0.227266,0.23,0,11757,79,divergent,2.42,231.55
47,2855,2,1,27,1,coolwarm,0.308958,0.3,1,11013,93,divergent,2.42,231.55
47,2856,2,1,28,1,coolwarm,0.323368,0.32,1,4509,91,divergent,2.42,231.55
47,2857,2,1,29,1,coolwarm,0.12652,0.13,0,4948,49,divergent,2.42,231.55
47,2858,2,2,30,1,coolwarm,0.121447,0.13,0,6502,98,divergent,2.42,231.55
47,2859,2,1,31,1,coolwarm,0.333212,0.34,0,8301,55,divergent,2.42,231.55
47,2860,2,1,32,1,coolwarm,0.164316,0.16,1,7589,87,divergent,2.42,231.55
47,2861,2,1,33,1,coolwarm,0.183186,0.19,0,5661,105,divergent,2.42,231.55
47,2862,2,2,34,1,coolwarm,0.334743,0.34,1,3181,48,divergent,2.42,231.55
47,2863,2,2,35,1,coolwarm,0.209752,0.21,0,7157,112,divergent,2.42,231.55
47,2864,2,2,36,1,coolwarm,0.304045,0.3,0,5156,86,divergent,2.42,231.55
47,2865,2,1,37,1,coolwarm,0.106965,0.11,0,5756,86,divergent,2.42,231.55
47,2866,2,2,38,1,coolwarm,0.23718,0.23,1,4325,61,divergent,2.42,231.55
47,2867,2,3,39,1,coolwarm,0.206239,0.21,1,4477,53,divergent,2.42,231.55
47,2868,2,2,40,1,coolwarm,0.324716,0.32,1,2628,148,divergent,2.42,231.55
47,2869,2,2,41,1,coolwarm,0.103632,0.11,0,3229,116,divergent,2.42,231.55
47,2870,2,2,42,1,coolwarm,0.198634,0.19,0,2805,73,divergent,2.42,231.55
47,2871,2,2,43,1,coolwarm,0.266172,0.26,1,4716,522,divergent,2.42,231.55
47,2872,2,2,44,1,coolwarm,0.166423,0.16,0,5469,93,divergent,2.42,231.55
47,2873,3,1,45,1,blues,0.283339,0.285,1,3800,941,singlehue,1.2,109.44
47,2874,3,1,46,1,blues,0.135116,0.13,1,6980,54,singlehue,1.2,109.44
47,2875,3,1,47,1,blues,0.313762,0.32,1,3659,315,singlehue,1.2,109.44
47,2876,3,1,48,1,blues,0.236123,0.23,1,6004,150,singlehue,1.2,109.44
47,2877,3,2,49,1,blues,0.287297,0.285,1,6983,157,singlehue,1.2,109.44
47,2878,3,1,50,1,blues,0.157191,0.16,1,6621,218,singlehue,1.2,109.44
47,2879,3,1,51,1,blues,0.33894,0.34,1,4401,270,singlehue,1.2,109.44
47,2880,3,1,52,1,blues,0.193606,0.19,0,4214,167,singlehue,1.2,109.44
47,2881,3,2,53,1,blues,0.161166,0.16,0,8413,79,singlehue,1.2,109.44
47,2882,3,1,54,1,blues,0.298278,0.3,1,7114,317,singlehue,1.2,109.44
47,2883,3,2,55,1,blues,0.340358,0.34,1,3455,375,singlehue,1.2,109.44
47,2884,3,2,56,1,blues,0.31175,0.32,1,6069,206,singlehue,1.2,109.44
47,2885,3,1,57,1,blues,0.252807,0.26,1,9106,74,singlehue,1.2,109.44
47,2886,3,2,58,1,blues,0.300951,0.3,1,6426,695,singlehue,1.2,109.44
47,2887,3,1,59,1,blues,0.113258,0.11,0,4869,67,singlehue,1.2,109.44
47,2888,3,2,60,1,blues,0.262005,0.26,0,7749,186,singlehue,1.2,109.44
47,2889,3,2,61,1,blues,0.106399,0.11,0,7198,57,singlehue,1.2,109.44
47,2890,3,2,62,1,blues,0.198697,0.19,1,9140,60,singlehue,1.2,109.44
47,2891,3,1,63,1,blues,0.216878,0.21,0,7774,106,singlehue,1.2,109.44
47,2892,3,2,64,1,blues,0.231432,0.23,0,6493,55,singlehue,1.2,109.44
47,2893,3,2,65,1,blues,0.215302,0.21,0,6579,201,singlehue,1.2,109.44
47,2894,3,3,66,1,blues,0.293442,0.285,1,9013,113,singlehue,1.2,109.44
47,2895,4,1,67,1,turbo,0.124079,0.13,0,8608,81,rainbow,5.25,411.05
47,2896,4,1,68,1,turbo,0.300376,0.3,1,3812,227,rainbow,5.25,411.05
47,2897,4,1,69,1,turbo,0.106932,0.11,0,6838,87,rainbow,5.25,411.05
47,2898,4,2,70,1,turbo,0.120013,0.13,0,4645,53,rainbow,5.25,411.05
47,2899,4,1,71,1,turbo,0.323168,0.32,1,4517,63,rainbow,5.25,411.05
47,2900,4,2,72,1,turbo,0.298994,0.3,1,6124,46,rainbow,5.25,411.05
47,2901,4,1,73,1,turbo,0.342656,0.34,1,5077,81,rainbow,5.25,411.05
47,2902,4,1,74,1,turbo,0.25343,0.26,1,2972,122,rainbow,5.25,411.05
47,2903,4,1,75,1,turbo,0.288876,0.285,1,4293,97,rainbow,5.25,411.05
47,2904,4,1,76,1,turbo,0.225808,0.23,1,4150,119,rainbow,5.25,411.05
47,2905,4,2,77,1,turbo,0.111698,0.11,1,9581,54,rainbow,5.25,411.05
47,2906,4,3,78,1,turbo,0.135584,0.13,1,7100,53,rainbow,5.25,411.05
47,2907,4,2,79,1,turbo,0.311433,0.32,1,4173,87,rainbow,5.25,411.05
47,2908,4,2,80,1,turbo,0.236069,0.23,0,10518,152,rainbow,5.25,411.05
47,2909,4,1,81,1,turbo,0.15253,0.16,1,7839,375,rainbow,5.25,411.05
47,2910,4,2,82,1,turbo,0.280882,0.285,1,5942,272,rainbow,5.25,411.05
47,2911,4,1,83,1,turbo,0.185292,0.19,1,3989,73,rainbow,5.25,411.05
47,2912,4,1,84,1,turbo,0.206629,0.21,1,6236,603,rainbow,5.25,411.05
47,2913,4,2,85,1,turbo,0.331654,0.34,1,5972,211,rainbow,5.25,411.05
47,2914,4,2,86,1,turbo,0.164331,0.16,0,6828,71,rainbow,5.25,411.05
47,2915,4,2,87,1,turbo,0.255812,0.26,1,4853,213,rainbow,5.25,411.05
47,2916,4,2,88,1,turbo,0.217245,0.21,1,8277,134,rainbow,5.25,411.05
49,2917,1,1,1,1,redpurple,0.224432,0.23,1,5440,270,multihue,1.48,142.76
49,2918,1,1,2,1,redpurple,0.168408,0.16,1,14262,99,multihue,1.48,142.76
49,2919,1,1,3,1,redpurple,0.322341,0.32,1,3796,101,multihue,1.48,142.76
49,2920,1,1,4,1,redpurple,0.287415,0.285,1,13228,169,multihue,1.48,142.76
49,2921,1,1,5,1,redpurple,0.341427,0.34,1,3526,63,multihue,1.48,142.76
49,2922,1,1,6,1,redpurple,0.265051,0.26,1,11413,143,multihue,1.48,142.76
49,2923,1,1,7,1,redpurple,0.128854,0.13,0,18285,238,multihue,1.48,142.76
49,2924,1,1,8,1,redpurple,0.204047,0.21,1,3853,132,multihue,1.48,142.76
49,2925,1,2,9,1,redpurple,0.340878,0.34,1,2430,187,multihue,1.48,142.76
49,2926,1,2,10,1,redpurple,0.230509,0.23,1,8108,66,multihue,1.48,142.76
49,2927,1,1,11,1,redpurple,0.302801,0.3,1,5237,79,multihue,1.48,142.76
49,2928,1,2,12,1,redpurple,0.160393,0.16,1,13852,89,multihue,1.48,142.76
49,2929,1,1,13,1,redpurple,0.189788,0.19,1,16038,116,multihue,1.48,142.76
49,2930,1,2,14,1,redpurple,0.207955,0.21,1,12661,119,multihue,1.48,142.76
49,2931,1,1,15,1,redpurple,0.106385,0.11,0,32591,109,multihue,1.48,142.76
49,2932,1,2,16,1,redpurple,0.261414,0.26,1,5716,75,multihue,1.48,142.76
49,2933,1,2,17,1,redpurple,0.29545,0.3,1,2700,275,multihue,1.48,142.76
49,2934,1,2,18,1,redpurple,0.278187,0.285,1,6563,274,multihue,1.48,142.76
49,2935,1,2,19,1,redpurple,0.105085,0.11,0,11094,75,multihue,1.48,142.76
49,2936,1,2,20,1,redpurple,0.315705,0.32,1,27732,189,multihue,1.48,142.76
49,2937,1,2,21,1,redpurple,0.187974,0.19,0,13558,224,multihue,1.48,142.76
49,2938,1,2,22,1,redpurple,0.134616,0.13,0,10413,102,multihue,1.48,142.76
49,2939,2,1,23,1,rainbowjet,0.225571,0.23,1,3686,318,rainbow,4.78,502
49,2940,2,1,24,1,rainbowjet,0.316743,0.32,1,3772,149,rainbow,4.78,502
49,2941,2,1,25,1,rainbowjet,0.255946,0.26,1,1950,311,rainbow,4.78,502
49,2942,2,2,26,1,rainbowjet,0.313122,0.32,1,3147,76,rainbow,4.78,502
49,2943,2,1,27,1,rainbowjet,0.129069,0.13,1,7919,185,rainbow,4.78,502
49,2944,2,1,28,1,rainbowjet,0.291477,0.285,1,5329,964,rainbow,4.78,502
49,2945,2,1,29,1,rainbowjet,0.107731,0.11,1,3558,97,rainbow,4.78,502
49,2946,2,1,30,1,rainbowjet,0.193146,0.19,1,8078,336,rainbow,4.78,502
49,2947,2,1,31,1,rainbowjet,0.216624,0.21,1,3836,137,rainbow,4.78,502
49,2948,2,1,32,1,rainbowjet,0.159878,0.16,1,12109,66,rainbow,4.78,502
49,2949,2,1,33,1,rainbowjet,0.30378,0.3,1,2808,358,rainbow,4.78,502
49,2950,2,2,34,1,rainbowjet,0.190036,0.19,1,2677,137,rainbow,4.78,502
49,2951,2,2,35,1,rainbowjet,0.136421,0.13,0,2277,225,rainbow,4.78,502
49,2952,2,2,36,1,rainbowjet,0.301616,0.3,1,1310,480,rainbow,4.78,502
49,2953,2,2,37,1,rainbowjet,0.23312,0.23,0,17568,446,rainbow,4.78,502
49,2954,2,1,38,1,rainbowjet,0.336877,0.34,1,1519,311,rainbow,4.78,502
49,2955,2,2,39,1,rainbowjet,0.108288,0.11,0,11677,249,rainbow,4.78,502
49,2956,2,2,40,1,rainbowjet,0.33391,0.34,1,2013,361,rainbow,4.78,502
49,2957,2,2,41,1,rainbowjet,0.265271,0.26,1,3213,601,rainbow,4.78,502
49,2958,2,2,42,1,rainbowjet,0.286351,0.285,1,1644,106,rainbow,4.78,502
49,2959,2,3,43,1,rainbowjet,0.227401,0.23,1,7165,57,rainbow,4.78,502
49,2960,2,2,44,1,rainbowjet,0.200825,0.21,1,8503,376,rainbow,4.78,502
49,2961,3,1,45,1,coolwarm,0.161248,0.16,0,12862,101,divergent,2.42,231.55
49,2962,3,1,46,1,coolwarm,0.262631,0.26,1,3562,254,divergent,2.42,231.55
49,2963,3,1,47,1,coolwarm,0.301665,0.3,1,3685,234,divergent,2.42,231.55
49,2964,3,1,48,1,coolwarm,0.187585,0.19,1,8542,158,divergent,2.42,231.55
49,2965,3,2,49,1,coolwarm,0.268956,0.26,0,19063,831,divergent,2.42,231.55
49,2966,3,1,50,1,coolwarm,0.110909,0.11,1,14557,96,divergent,2.42,231.55
49,2967,3,1,51,1,coolwarm,0.312171,0.32,1,2606,115,divergent,2.42,231.55
49,2968,3,1,52,1,coolwarm,0.290811,0.285,1,2029,99,divergent,2.42,231.55
49,2969,3,2,53,1,coolwarm,0.285103,0.285,1,6917,160,divergent,2.42,231.55
49,2970,3,2,54,1,coolwarm,0.114986,0.11,1,20260,223,divergent,2.42,231.55
49,2971,3,2,55,1,coolwarm,0.321241,0.32,1,2309,97,divergent,2.42,231.55
49,2972,3,1,56,1,coolwarm,0.138556,0.13,1,16454,66,divergent,2.42,231.55
49,2973,3,1,57,1,coolwarm,0.225069,0.23,1,12150,230,divergent,2.42,231.55
49,2974,3,2,58,1,coolwarm,0.18811,0.19,1,5365,273,divergent,2.42,231.55
49,2975,3,2,59,1,coolwarm,0.306715,0.3,1,6909,559,divergent,2.42,231.55
49,2976,3,2,60,1,coolwarm,0.133303,0.13,1,22045,81,divergent,2.42,231.55
49,2977,3,1,61,1,coolwarm,0.214282,0.21,1,18948,98,divergent,2.42,231.55
49,2978,3,2,62,1,coolwarm,0.150147,0.16,1,2023,239,divergent,2.42,231.55
49,2979,3,3,63,1,coolwarm,0.166078,0.16,1,12012,83,divergent,2.42,231.55
49,2980,3,2,64,1,coolwarm,0.204482,0.21,1,9284,779,divergent,2.42,231.55
49,2981,3,1,65,1,coolwarm,0.3494,0.34,1,3037,92,divergent,2.42,231.55
49,2982,3,2,66,1,coolwarm,0.220224,0.23,0,20647,344,divergent,2.42,231.55
49,2983,4,1,67,1,blues,0.335897,0.34,1,3066,97,singlehue,1.2,109.44
49,2984,4,1,68,1,blues,0.261923,0.26,1,6921,549,singlehue,1.2,109.44
49,2985,4,1,69,1,blues,0.280761,0.285,1,3292,87,singlehue,1.2,109.44
49,2986,4,2,70,1,blues,0.279326,0.285,1,3541,189,singlehue,1.2,109.44
49,2987,4,1,71,1,blues,0.211785,0.21,1,6175,239,singlehue,1.2,109.44
49,2988,4,1,72,1,blues,0.181829,0.19,1,8204,137,singlehue,1.2,109.44
49,2989,4,1,73,1,blues,0.164813,0.16,0,10462,287,singlehue,1.2,109.44
49,2990,4,1,74,1,blues,0.305767,0.3,1,4027,205,singlehue,1.2,109.44
49,2991,4,1,75,1,blues,0.329296,0.32,1,8974,145,singlehue,1.2,109.44
49,2992,4,1,76,1,blues,0.129611,0.13,0,9428,74,singlehue,1.2,109.44
49,2993,4,2,77,1,blues,0.20316,0.21,0,17941,60,singlehue,1.2,109.44
49,2994,4,2,78,1,blues,0.347035,0.34,1,7875,56,singlehue,1.2,109.44
49,2995,4,1,79,1,blues,0.228143,0.23,0,15503,352,singlehue,1.2,109.44
49,2996,4,1,80,1,blues,0.101752,0.11,1,10442,285,singlehue,1.2,109.44
49,2997,4,2,81,1,blues,0.326963,0.32,1,3021,183,singlehue,1.2,109.44
49,2998,4,2,82,1,blues,0.152635,0.16,1,5662,220,singlehue,1.2,109.44
49,2999,4,2,83,1,blues,0.25159,0.26,0,4053,75,singlehue,1.2,109.44
49,3000,4,2,84,1,blues,0.299278,0.3,1,3953,260,singlehue,1.2,109.44
49,3001,4,3,85,1,blues,0.348259,0.34,1,2797,82,singlehue,1.2,109.44
49,3002,4,2,86,1,blues,0.109312,0.11,1,21358,78,singlehue,1.2,109.44
49,3003,4,2,87,1,blues,0.199852,0.19,1,13173,75,singlehue,1.2,109.44
49,3004,4,2,88,1,blues,0.12377,0.13,0,19580,220,singlehue,1.2,109.44
50,3005,1,1,1,1,rainbowjet,0.265232,0.26,1,9720,1112,rainbow,4.78,502
50,3006,1,2,2,1,rainbowjet,0.262529,0.26,1,3230,599,rainbow,4.78,502
50,3007,1,1,3,1,rainbowjet,0.217865,0.21,1,4758,358,rainbow,4.78,502
50,3008,1,1,4,1,rainbowjet,0.183902,0.19,0,4906,476,rainbow,4.78,502
50,3009,1,1,5,1,rainbowjet,0.160807,0.16,1,4968,832,rainbow,4.78,502
50,3010,1,1,6,1,rainbowjet,0.328316,0.32,0,4048,365,rainbow,4.78,502
50,3011,1,1,7,1,rainbowjet,0.279935,0.285,1,19045,156,rainbow,4.78,502
50,3012,1,2,8,1,rainbowjet,0.319248,0.32,1,4164,904,rainbow,4.78,502
50,3013,1,1,9,1,rainbowjet,0.124515,0.13,0,17788,137,rainbow,4.78,502
50,3014,1,1,10,1,rainbowjet,0.341434,0.34,1,9520,2291,rainbow,4.78,502
50,3015,1,2,11,1,rainbowjet,0.281818,0.285,1,2570,482,rainbow,4.78,502
50,3016,1,2,12,1,rainbowjet,0.343853,0.34,1,1295,502,rainbow,4.78,502
50,3017,1,1,13,1,rainbowjet,0.22785,0.23,1,2528,439,rainbow,4.78,502
50,3018,1,1,14,1,rainbowjet,0.301215,0.3,1,3395,218,rainbow,4.78,502
50,3019,1,1,15,1,rainbowjet,0.110732,0.11,0,5834,179,rainbow,4.78,502
50,3020,1,2,16,1,rainbowjet,0.200501,0.21,1,7708,140,rainbow,4.78,502
50,3021,1,2,17,1,rainbowjet,0.130616,0.13,0,5424,414,rainbow,4.78,502
50,3022,1,2,18,1,rainbowjet,0.153219,0.16,0,4420,106,rainbow,4.78,502
50,3023,1,2,19,1,rainbowjet,0.181195,0.19,1,27126,535,rainbow,4.78,502
50,3024,1,2,20,1,rainbowjet,0.235491,0.23,1,4769,737,rainbow,4.78,502
50,3025,1,2,21,1,rainbowjet,0.301479,0.3,1,4239,377,rainbow,4.78,502
50,3026,1,2,22,1,rainbowjet,0.112615,0.11,0,12183,1056,rainbow,4.78,502
50,3027,2,1,23,1,redpurple,0.269996,0.26,1,22279,255,multihue,1.48,142.76
50,3028,2,1,24,1,redpurple,0.114653,0.11,1,10228,170,multihue,1.48,142.76
50,3029,2,1,25,1,redpurple,0.219864,0.21,0,16228,234,multihue,1.48,142.76
50,3030,2,1,26,1,redpurple,0.325185,0.32,1,5567,2752,multihue,1.48,142.76
50,3031,2,1,27,1,redpurple,0.290104,0.3,1,1684,1013,multihue,1.48,142.76
50,3032,2,1,28,1,redpurple,0.154577,0.16,0,5053,147,multihue,1.48,142.76
50,3033,2,1,29,1,redpurple,0.180969,0.19,0,4091,556,multihue,1.48,142.76
50,3034,2,1,30,1,redpurple,0.136972,0.13,0,5948,206,multihue,1.48,142.76
50,3035,2,2,31,1,redpurple,0.25487,0.26,1,14537,567,multihue,1.48,142.76
50,3036,2,2,32,1,redpurple,0.124849,0.13,0,9015,326,multihue,1.48,142.76
50,3037,2,2,33,1,redpurple,0.210266,0.21,1,8496,268,multihue,1.48,142.76
50,3038,2,2,34,1,redpurple,0.183531,0.19,1,7018,1088,multihue,1.48,142.76
50,3039,2,2,35,1,redpurple,0.150935,0.16,0,3338,1108,multihue,1.48,142.76
50,3040,2,2,36,1,redpurple,0.314105,0.32,1,6397,826,multihue,1.48,142.76
50,3041,2,1,37,1,redpurple,0.27734,0.285,1,1941,167,multihue,1.48,142.76
50,3042,2,1,38,1,redpurple,0.222699,0.23,0,4277,148,multihue,1.48,142.76
50,3043,2,2,39,1,redpurple,0.309576,0.3,1,3475,349,multihue,1.48,142.76
50,3044,2,1,40,1,redpurple,0.333191,0.34,1,3635,140,multihue,1.48,142.76
50,3045,2,2,41,1,redpurple,0.333215,0.34,1,4626,251,multihue,1.48,142.76
50,3046,2,2,42,1,redpurple,0.223116,0.23,1,27515,1193,multihue,1.48,142.76
50,3047,2,3,43,1,redpurple,0.256573,0.26,1,1575,5449,multihue,1.48,142.76
50,3048,2,2,44,1,redpurple,0.293384,0.285,1,31367,4313,multihue,1.48,142.76
50,3049,3,1,45,1,greyred,0.108011,0.11,0,7108,878,divergent,2.57,163.89
50,3050,3,1,46,1,greyred,0.268948,0.26,0,78369,773,divergent,2.57,163.89
50,3051,3,1,47,1,greyred,0.230095,0.23,1,4530,254,divergent,2.57,163.89
50,3052,3,1,48,1,greyred,0.288938,0.285,1,5201,203,divergent,2.57,163.89
50,3053,3,1,49,1,greyred,0.159705,0.16,0,4945,174,divergent,2.57,163.89
50,3054,3,1,50,1,greyred,0.298335,0.3,0,3713,241,divergent,2.57,163.89
50,3055,3,1,51,1,greyred,0.342657,0.34,1,144376,304,divergent,2.57,163.89
50,3056,3,1,52,1,greyred,0.203193,0.21,1,23280,205,divergent,2.57,163.89
50,3057,3,2,53,1,greyred,0.300705,0.3,1,4829,1499,divergent,2.57,163.89
50,3058,3,1,54,1,greyred,0.313637,0.32,1,2693,712,divergent,2.57,163.89
50,3059,3,1,55,1,greyred,0.120676,0.13,0,7453,125,divergent,2.57,163.89
50,3060,3,1,56,1,greyred,0.199177,0.19,1,1997,213,divergent,2.57,163.89
50,3061,3,2,57,1,greyred,0.232201,0.23,1,2085,345,divergent,2.57,163.89
50,3062,3,2,58,1,greyred,0.260353,0.26,0,30668,411,divergent,2.57,163.89
50,3063,3,2,59,1,greyred,0.289403,0.285,1,3693,1055,divergent,2.57,163.89
50,3064,3,2,60,1,greyred,0.212045,0.21,1,3647,466,divergent,2.57,163.89
50,3065,3,2,61,1,greyred,0.315882,0.32,1,2453,515,divergent,2.57,163.89
50,3066,3,2,62,1,greyred,0.11803,0.11,1,4052,132,divergent,2.57,163.89
50,3067,3,2,63,1,greyred,0.138927,0.13,1,11148,169,divergent,2.57,163.89
50,3068,3,2,64,1,greyred,0.333975,0.34,1,61746,2034,divergent,2.57,163.89
50,3069,3,3,65,1,greyred,0.101922,0.11,0,2971,439,divergent,2.57,163.89
50,3070,3,2,66,1,greyred,0.151241,0.16,1,4586,377,divergent,2.57,163.89
50,3071,4,1,67,1,blues,0.191867,0.19,1,4899,150,singlehue,1.2,109.44
50,3072,4,1,68,1,blues,0.104508,0.11,0,18019,217,singlehue,1.2,109.44
50,3073,4,1,69,1,blues,0.120814,0.13,1,4787,138,singlehue,1.2,109.44
50,3074,4,1,70,1,blues,0.292521,0.3,1,1207,295,singlehue,1.2,109.44
50,3075,4,1,71,1,blues,0.338929,0.34,1,19590,1596,singlehue,1.2,109.44
50,3076,4,1,72,1,blues,0.236042,0.23,0,8502,2405,singlehue,1.2,109.44
50,3077,4,1,73,1,blues,0.25943,0.26,0,34875,543,singlehue,1.2,109.44
50,3078,4,2,74,1,blues,0.291185,0.3,1,17277,206,singlehue,1.2,109.44
50,3079,4,1,75,1,blues,0.291871,0.285,0,2223,270,singlehue,1.2,109.44
50,3080,4,2,76,1,blues,0.224872,0.23,1,2984,465,singlehue,1.2,109.44
50,3081,4,2,77,1,blues,0.105218,0.11,0,5106,299,singlehue,1.2,109.44
50,3082,4,1,78,1,blues,0.157367,0.16,1,1754,594,singlehue,1.2,109.44
50,3083,4,1,79,1,blues,0.204001,0.21,0,61804,313,singlehue,1.2,109.44
50,3084,4,2,80,1,blues,0.210004,0.21,1,15273,802,singlehue,1.2,109.44
50,3085,4,2,81,1,blues,0.294299,0.285,1,3082,2939,singlehue,1.2,109.44
50,3086,4,2,82,1,blues,0.164953,0.16,0,8355,405,singlehue,1.2,109.44
50,3087,4,2,83,1,blues,0.337694,0.34,1,2323,1037,singlehue,1.2,109.44
50,3088,4,1,84,1,blues,0.325818,0.32,1,27356,758,singlehue,1.2,109.44
50,3089,4,2,85,1,blues,0.124364,0.13,0,43714,845,singlehue,1.2,109.44
50,3090,4,2,86,1,blues,0.194383,0.19,1,10263,470,singlehue,1.2,109.44
50,3091,4,3,87,1,blues,0.190945,0.19,0,8099,671,singlehue,1.2,109.44
50,3092,4,2,88,1,blues,0.311505,0.32,1,2182,442,singlehue,1.2,109.44
54,3093,1,1,1,1,turbo,0.165676,0.16,1,25343,367,rainbow,5.25,411.05
54,3094,1,1,2,1,turbo,0.191878,0.19,0,8277,138,rainbow,5.25,411.05
54,3095,1,1,3,1,turbo,0.304999,0.3,1,13070,1181,rainbow,5.25,411.05
54,3096,1,1,4,1,turbo,0.287971,0.285,0,7306,524,rainbow,5.25,411.05
54,3097,1,2,5,1,turbo,0.195403,0.19,0,3259,67,rainbow,5.25,411.05
54,3098,1,1,6,1,turbo,0.235454,0.23,1,9594,801,rainbow,5.25,411.05
54,3099,1,1,7,1,turbo,0.138258,0.13,1,5750,152,rainbow,5.25,411.05
54,3100,1,1,8,1,turbo,0.327938,0.32,1,30018,131,rainbow,5.25,411.05
54,3101,1,2,9,1,turbo,0.223673,0.23,1,5870,143,rainbow,5.25,411.05
54,3102,1,1,10,1,turbo,0.202576,0.21,0,3028,70,rainbow,5.25,411.05
54,3103,1,2,11,1,turbo,0.125812,0.13,0,5989,82,rainbow,5.25,411.05
54,3104,1,2,12,1,turbo,0.278968,0.285,1,2292,353,rainbow,5.25,411.05
54,3105,1,2,13,1,turbo,0.155788,0.16,0,13787,74,rainbow,5.25,411.05
54,3106,1,2,14,1,turbo,0.20668,0.21,0,3454,567,rainbow,5.25,411.05
54,3107,1,1,15,1,turbo,0.338399,0.34,1,6564,187,rainbow,5.25,411.05
54,3108,1,1,16,1,turbo,0.110989,0.11,0,4184,124,rainbow,5.25,411.05
54,3109,1,2,17,1,turbo,0.107722,0.11,0,5383,66,rainbow,5.25,411.05
54,3110,1,2,18,1,turbo,0.311511,0.32,1,3576,127,rainbow,5.25,411.05
54,3111,1,1,19,1,turbo,0.256574,0.26,0,6276,1073,rainbow,5.25,411.05
54,3112,1,2,20,1,turbo,0.299694,0.3,0,2446,151,rainbow,5.25,411.05
54,3113,1,2,21,1,turbo,0.261644,0.26,0,4845,69,rainbow,5.25,411.05
54,3114,1,2,22,1,turbo,0.337916,0.34,1,5066,453,rainbow,5.25,411.05
54,3115,2,1,23,1,blues,0.153554,0.16,0,4250,388,singlehue,1.2,109.44
54,3116,2,1,24,1,blues,0.294575,0.285,1,3590,502,singlehue,1.2,109.44
54,3117,2,1,25,1,blues,0.104994,0.11,0,6849,82,singlehue,1.2,109.44
54,3118,2,1,26,1,blues,0.290961,0.3,1,6445,90,singlehue,1.2,109.44
54,3119,2,2,27,1,blues,0.167564,0.16,1,3801,80,singlehue,1.2,109.44
54,3120,2,1,28,1,blues,0.34736,0.34,0,4272,316,singlehue,1.2,109.44
54,3121,2,2,29,1,blues,0.281293,0.285,0,3876,140,singlehue,1.2,109.44
54,3122,2,2,30,1,blues,0.10013,0.11,0,3506,68,singlehue,1.2,109.44
54,3123,2,2,31,1,blues,0.341877,0.34,1,4577,85,singlehue,1.2,109.44
54,3124,2,3,32,1,blues,0.158272,0.16,1,8486,108,singlehue,1.2,109.44
54,3125,2,1,33,1,blues,0.228087,0.23,1,7668,179,singlehue,1.2,109.44
54,3126,2,1,34,1,blues,0.135869,0.13,1,12932,123,singlehue,1.2,109.44
54,3127,2,2,35,1,blues,0.308217,0.3,0,9835,176,singlehue,1.2,109.44
54,3128,2,1,36,1,blues,0.315166,0.32,0,29344,139,singlehue,1.2,109.44
54,3129,2,2,37,1,blues,0.123388,0.13,1,2885,76,singlehue,1.2,109.44
54,3130,2,2,38,1,blues,0.237704,0.23,0,9506,140,singlehue,1.2,109.44
54,3131,2,1,39,1,blues,0.262892,0.26,0,10140,281,singlehue,1.2,109.44
54,3132,2,2,40,1,blues,0.315754,0.32,1,3890,1611,singlehue,1.2,109.44
54,3133,2,1,41,1,blues,0.203894,0.21,0,3641,317,singlehue,1.2,109.44
54,3134,2,2,42,1,blues,0.2064,0.21,0,4607,65,singlehue,1.2,109.44
54,3135,2,1,43,1,blues,0.181244,0.19,1,6877,79,singlehue,1.2,109.44
54,3136,2,2,44,1,blues,0.186124,0.19,1,3139,441,singlehue,1.2,109.44
54,3137,3,1,45,1,viridis,0.266833,0.26,1,16385,352,multihue,2.75,217.31
54,3138,3,1,46,1,viridis,0.329971,0.32,1,2360,188,multihue,2.75,217.31
54,3139,3,1,47,1,viridis,0.120546,0.13,1,13309,151,multihue,2.75,217.31
54,3140,3,1,48,1,viridis,0.187498,0.19,1,4419,81,multihue,2.75,217.31
54,3141,3,1,49,1,viridis,0.216734,0.21,1,6079,142,multihue,2.75,217.31
54,3142,3,1,50,1,viridis,0.119531,0.11,0,4058,92,multihue,2.75,217.31
54,3143,3,1,51,1,viridis,0.344528,0.34,1,3359,301,multihue,2.75,217.31
54,3144,3,2,52,1,viridis,0.269164,0.26,1,2752,190,multihue,2.75,217.31
54,3145,3,1,53,1,viridis,0.221911,0.23,0,2536,392,multihue,2.75,217.31
54,3146,3,1,54,1,viridis,0.169014,0.16,1,2552,389,multihue,2.75,217.31
54,3147,3,2,55,1,viridis,0.215903,0.21,1,3164,226,multihue,2.75,217.31
54,3148,3,3,56,1,viridis,0.253258,0.26,0,5757,73,multihue,2.75,217.31
54,3149,3,2,57,1,viridis,0.34543,0.34,1,3333,84,multihue,2.75,217.31
54,3150,3,1,58,1,viridis,0.301458,0.3,1,3358,117,multihue,2.75,217.31
54,3151,3,2,59,1,viridis,0.16566,0.16,1,2719,196,multihue,2.75,217.31
54,3152,3,2,60,1,viridis,0.224646,0.23,1,6605,85,multihue,2.75,217.31
54,3153,3,2,61,1,viridis,0.313309,0.32,1,2103,526,multihue,2.75,217.31
54,3154,3,2,62,1,viridis,0.183902,0.19,1,8513,165,multihue,2.75,217.31
54,3155,3,2,63,1,viridis,0.134098,0.13,0,3949,132,multihue,2.75,217.31
54,3156,3,2,64,1,viridis,0.114764,0.11,0,4848,199,multihue,2.75,217.31
54,3157,3,1,65,1,viridis,0.282625,0.285,0,5414,308,multihue,2.75,217.31
54,3158,3,2,66,1,viridis,0.281806,0.285,1,4234,854,multihue,2.75,217.31
54,3159,4,1,67,1,coolwarm,0.308493,0.3,1,11880,109,divergent,2.42,231.55
54,3160,4,1,68,1,coolwarm,0.292337,0.285,1,8881,611,divergent,2.42,231.55
54,3161,4,1,69,1,coolwarm,0.200188,0.21,0,6017,522,divergent,2.42,231.55
54,3162,4,1,70,1,coolwarm,0.123108,0.13,1,8560,67,divergent,2.42,231.55
54,3163,4,1,71,1,coolwarm,0.232883,0.23,0,2254,75,divergent,2.42,231.55
54,3164,4,2,72,1,coolwarm,0.296909,0.3,1,3706,85,divergent,2.42,231.55
54,3165,4,3,73,1,coolwarm,0.291068,0.3,1,4649,316,divergent,2.42,231.55
54,3166,4,1,74,1,coolwarm,0.153195,0.16,1,6187,109,divergent,2.42,231.55
54,3167,4,1,75,1,coolwarm,0.326037,0.32,1,6163,249,divergent,2.42,231.55
54,3168,4,1,76,1,coolwarm,0.256334,0.26,1,3083,211,divergent,2.42,231.55
54,3169,4,2,77,1,coolwarm,0.129941,0.13,1,3020,73,divergent,2.42,231.55
54,3170,4,1,78,1,coolwarm,0.182981,0.19,1,4541,90,divergent,2.42,231.55
54,3171,4,2,79,1,coolwarm,0.281562,0.285,1,2070,113,divergent,2.42,231.55
54,3172,4,1,80,1,coolwarm,0.111135,0.11,0,2944,132,divergent,2.42,231.55
54,3173,4,1,81,1,coolwarm,0.348168,0.34,1,1955,682,divergent,2.42,231.55
54,3174,4,2,82,1,coolwarm,0.310708,0.32,1,8097,67,divergent,2.42,231.55
54,3175,4,2,83,1,coolwarm,0.10242,0.11,1,4780,117,divergent,2.42,231.55
54,3176,4,2,84,1,coolwarm,0.268368,0.26,1,5255,270,divergent,2.42,231.55
54,3177,4,2,85,1,coolwarm,0.196297,0.19,0,6292,122,divergent,2.42,231.55
54,3178,4,2,86,1,coolwarm,0.224818,0.23,0,8353,701,divergent,2.42,231.55
54,3179,4,2,87,1,coolwarm,0.346616,0.34,1,3788,75,divergent,2.42,231.55
54,3180,4,2,88,1,coolwarm,0.212828,0.21,0,3891,63,divergent,2.42,231.55
55,3181,1,1,1,1,blues,0.114566,0.11,0,3057,321,singlehue,1.2,109.44
55,3182,1,1,2,1,blues,0.234447,0.23,1,4554,259,singlehue,1.2,109.44
55,3183,1,1,3,1,blues,0.214821,0.21,0,54808,391,singlehue,1.2,109.44
55,3184,1,1,4,1,blues,0.343321,0.34,1,3623,105,singlehue,1.2,109.44
55,3185,1,2,5,1,blues,0.331699,0.34,1,2363,307,singlehue,1.2,109.44
55,3186,1,1,6,1,blues,0.155531,0.16,0,4430,137,singlehue,1.2,109.44
55,3187,1,1,7,1,blues,0.327836,0.32,1,2797,96,singlehue,1.2,109.44
55,3188,1,1,8,1,blues,0.303051,0.3,1,2221,211,singlehue,1.2,109.44
55,3189,1,1,9,1,blues,0.276421,0.285,1,3660,78,singlehue,1.2,109.44
55,3190,1,2,10,1,blues,0.228331,0.23,0,4476,93,singlehue,1.2,109.44
55,3191,1,2,11,1,blues,0.302426,0.3,1,3661,553,singlehue,1.2,109.44
55,3192,1,2,12,1,blues,0.293735,0.285,0,3895,1143,singlehue,1.2,109.44
55,3193,1,1,13,1,blues,0.196607,0.19,1,4610,291,singlehue,1.2,109.44
55,3194,1,2,14,1,blues,0.2074,0.21,1,3710,281,singlehue,1.2,109.44
55,3195,1,2,15,1,blues,0.193502,0.19,1,3191,359,singlehue,1.2,109.44
55,3196,1,2,16,1,blues,0.152673,0.16,0,6181,234,singlehue,1.2,109.44
55,3197,1,1,17,1,blues,0.258543,0.26,1,2431,92,singlehue,1.2,109.44
55,3198,1,2,18,1,blues,0.110953,0.11,0,2877,144,singlehue,1.2,109.44
55,3199,1,2,19,1,blues,0.259965,0.26,0,2445,227,singlehue,1.2,109.44
55,3200,1,1,20,1,blues,0.132333,0.13,1,4382,173,singlehue,1.2,109.44
55,3201,1,2,21,1,blues,0.122975,0.13,0,6405,106,singlehue,1.2,109.44
55,3202,1,2,22,1,blues,0.325195,0.32,1,2477,162,singlehue,1.2,109.44
55,3203,2,1,23,1,spectral,0.113614,0.11,0,7467,134,divergent,3.99,218.97
55,3204,2,1,24,1,spectral,0.234449,0.23,1,3022,178,divergent,3.99,218.97
55,3205,2,1,25,1,spectral,0.191166,0.19,1,4671,79,divergent,3.99,218.97
55,3206,2,1,26,1,spectral,0.15093,0.16,0,5131,556,divergent,3.99,218.97
55,3207,2,1,27,1,spectral,0.135634,0.13,1,7099,346,divergent,3.99,218.97
55,3208,2,2,28,1,spectral,0.227414,0.23,1,3181,151,divergent,3.99,218.97
55,3209,2,2,29,1,spectral,0.155185,0.16,1,2509,207,divergent,3.99,218.97
55,3210,2,1,30,1,spectral,0.323388,0.32,1,4252,118,divergent,3.99,218.97
55,3211,2,1,31,1,spectral,0.343564,0.34,1,3684,1041,divergent,3.99,218.97
55,3212,2,1,32,1,spectral,0.263277,0.26,1,1454,326,divergent,3.99,218.97
55,3213,2,2,33,1,spectral,0.102899,0.11,0,4381,79,divergent,3.99,218.97
55,3214,2,1,34,1,spectral,0.289524,0.285,1,3389,346,divergent,3.99,218.97
55,3215,2,2,35,1,spectral,0.313308,0.32,1,4245,81,divergent,3.99,218.97
55,3216,2,2,36,1,spectral,0.281821,0.285,1,3774,112,divergent,3.99,218.97
55,3217,2,2,37,1,spectral,0.120442,0.13,1,5671,106,divergent,3.99,218.97
55,3218,2,1,38,1,spectral,0.304682,0.3,0,6166,72,divergent,3.99,218.97
55,3219,2,2,39,1,spectral,0.308895,0.3,1,8014,172,divergent,3.99,218.97
55,3220,2,2,40,1,spectral,0.267372,0.26,1,3502,319,divergent,3.99,218.97
55,3221,2,2,41,1,spectral,0.199762,0.19,1,9630,80,divergent,3.99,218.97
55,3222,2,3,42,1,spectral,0.110645,0.11,0,7356,116,divergent,3.99,218.97
55,3223,2,2,43,1,spectral,0.339432,0.34,1,2353,373,divergent,3.99,218.97
55,3224,2,1,44,1,spectral,0.201854,0.21,1,2902,320,divergent,3.99,218.97
55,3225,3,1,45,1,viridis,0.207655,0.21,1,3796,313,multihue,2.75,217.31
55,3226,3,1,46,1,viridis,0.234634,0.23,0,2283,300,multihue,2.75,217.31
55,3227,3,1,47,1,viridis,0.188417,0.19,0,4763,419,multihue,2.75,217.31
55,3228,3,1,48,1,viridis,0.291884,0.3,1,2153,456,multihue,2.75,217.31
55,3229,3,1,49,1,viridis,0.269609,0.26,1,133426,205,multihue,2.75,217.31
55,3230,3,1,50,1,viridis,0.312223,0.32,1,2525,696,multihue,2.75,217.31
55,3231,3,1,51,1,viridis,0.344475,0.34,1,4113,382,multihue,2.75,217.31
55,3232,3,2,52,1,viridis,0.210257,0.21,1,3205,100,multihue,2.75,217.31
55,3233,3,3,53,1,viridis,0.208842,0.21,0,2670,96,multihue,2.75,217.31
55,3234,3,1,54,1,viridis,0.153538,0.16,0,2269,78,multihue,2.75,217.31
55,3235,3,2,55,1,viridis,0.185939,0.19,1,3682,526,multihue,2.75,217.31
55,3236,3,2,56,1,viridis,0.231214,0.23,1,7205,125,multihue,2.75,217.31
55,3237,3,1,57,1,viridis,0.285099,0.285,1,2235,435,multihue,2.75,217.31
55,3238,3,1,58,1,viridis,0.133619,0.13,0,6941,140,multihue,2.75,217.31
55,3239,3,1,59,1,viridis,0.103681,0.11,1,5312,140,multihue,2.75,217.31
55,3240,3,2,60,1,viridis,0.320026,0.32,1,1454,240,multihue,2.75,217.31
55,3241,3,2,61,1,viridis,0.334574,0.34,1,1737,653,multihue,2.75,217.31
55,3242,3,2,62,1,viridis,0.125741,0.13,0,6837,321,multihue,2.75,217.31
55,3243,3,2,63,1,viridis,0.118313,0.11,0,4756,108,multihue,2.75,217.31
55,3244,3,2,64,1,viridis,0.268315,0.26,1,5797,235,multihue,2.75,217.31
55,3245,3,2,65,1,viridis,0.285447,0.285,1,9956,417,multihue,2.75,217.31
55,3246,3,2,66,1,viridis,0.302216,0.3,1,3388,131,multihue,2.75,217.31
55,3247,4,1,67,1,rainbowjet,0.192902,0.19,0,6045,239,rainbow,4.78,502
55,3248,4,1,68,1,rainbowjet,0.11997,0.11,1,10000,80,rainbow,4.78,502
55,3249,4,1,69,1,rainbowjet,0.139158,0.13,1,2557,78,rainbow,4.78,502
55,3250,4,1,70,1,rainbowjet,0.233846,0.23,1,1485,115,rainbow,4.78,502
55,3251,4,1,71,1,rainbowjet,0.250128,0.26,1,1791,679,rainbow,4.78,502
55,3252,4,2,72,1,rainbowjet,0.127946,0.13,1,6931,307,rainbow,4.78,502
55,3253,4,1,73,1,rainbowjet,0.218409,0.21,1,3484,216,rainbow,4.78,502
55,3254,4,1,74,1,rainbowjet,0.322685,0.32,1,2572,174,rainbow,4.78,502
55,3255,4,2,75,1,rainbowjet,0.207159,0.21,1,4946,557,rainbow,4.78,502
55,3256,4,2,76,1,rainbowjet,0.31237,0.32,1,6579,324,rainbow,4.78,502
55,3257,4,2,77,1,rainbowjet,0.254528,0.26,1,2259,547,rainbow,4.78,502
55,3258,4,2,78,1,rainbowjet,0.117804,0.11,0,11498,308,rainbow,4.78,502
55,3259,4,1,79,1,rainbowjet,0.305887,0.3,1,2368,318,rainbow,4.78,502
55,3260,4,1,80,1,rainbowjet,0.348274,0.34,1,2279,203,rainbow,4.78,502
55,3261,4,1,81,1,rainbowjet,0.28582,0.285,1,2945,253,rainbow,4.78,502
55,3262,4,1,82,1,rainbowjet,0.156421,0.16,0,2309,106,rainbow,4.78,502
55,3263,4,2,83,1,rainbowjet,0.183035,0.19,1,5270,169,rainbow,4.78,502
55,3264,4,2,84,1,rainbowjet,0.348446,0.34,0,4693,155,rainbow,4.78,502
55,3265,4,2,85,1,rainbowjet,0.298064,0.3,0,3781,130,rainbow,4.78,502
55,3266,4,2,86,1,rainbowjet,0.286568,0.285,1,4262,189,rainbow,4.78,502
55,3267,4,2,87,1,rainbowjet,0.160137,0.16,1,8029,69,rainbow,4.78,502
55,3268,4,2,88,1,rainbowjet,0.220325,0.23,1,5436,538,rainbow,4.78,502
56,3269,1,1,1,1,viridis,0.199109,0.19,1,9366,1157,multihue,2.75,217.31
56,3270,1,1,2,1,viridis,0.348886,0.34,1,4269,150,multihue,2.75,217.31
56,3271,1,1,3,1,viridis,0.257171,0.26,1,2197,165,multihue,2.75,217.31
56,3272,1,1,4,1,viridis,0.156225,0.16,0,6493,456,multihue,2.75,217.31
56,3273,1,1,5,1,viridis,0.10169,0.11,0,3162,463,multihue,2.75,217.31
56,3274,1,1,6,1,viridis,0.311667,0.32,1,5912,111,multihue,2.75,217.31
56,3275,1,2,7,1,viridis,0.335729,0.34,1,2313,891,multihue,2.75,217.31
56,3276,1,1,8,1,viridis,0.233639,0.23,0,5488,863,multihue,2.75,217.31
56,3277,1,1,9,1,viridis,0.299804,0.3,1,2300,103,multihue,2.75,217.31
56,3278,1,2,10,1,viridis,0.261403,0.26,1,12804,385,multihue,2.75,217.31
56,3279,1,1,11,1,viridis,0.286591,0.285,1,2370,120,multihue,2.75,217.31
56,3280,1,1,12,1,viridis,0.204639,0.21,1,2954,822,multihue,2.75,217.31
56,3281,1,2,13,1,viridis,0.227709,0.23,1,4914,163,multihue,2.75,217.31
56,3282,1,2,14,1,viridis,0.299349,0.3,1,8470,262,multihue,2.75,217.31
56,3283,1,2,15,1,viridis,0.209186,0.21,1,2615,632,multihue,2.75,217.31
56,3284,1,2,16,1,viridis,0.183891,0.19,1,3827,436,multihue,2.75,217.31
56,3285,1,2,17,1,viridis,0.151641,0.16,1,2977,234,multihue,2.75,217.31
56,3286,1,2,18,1,viridis,0.293925,0.285,1,1647,843,multihue,2.75,217.31
56,3287,1,2,19,1,viridis,0.326859,0.32,1,4744,242,multihue,2.75,217.31
56,3288,1,1,20,1,viridis,0.131544,0.13,0,6398,143,multihue,2.75,217.31
56,3289,1,2,21,1,viridis,0.124398,0.13,1,7264,209,multihue,2.75,217.31
56,3290,1,2,22,1,viridis,0.108011,0.11,0,3324,447,multihue,2.75,217.31
56,3291,2,1,23,1,rainbowcie,0.181498,0.19,1,5492,507,rainbow,4.6,453.83
56,3292,2,1,24,1,rainbowcie,0.122764,0.13,0,7370,90,rainbow,4.6,453.83
56,3293,2,1,25,1,rainbowcie,0.303748,0.3,0,2781,154,rainbow,4.6,453.83
56,3294,2,1,26,1,rainbowcie,0.266817,0.26,1,2815,605,rainbow,4.6,453.83
56,3295,2,2,27,1,rainbowcie,0.195441,0.19,1,2481,225,rainbow,4.6,453.83
56,3296,2,2,28,1,rainbowcie,0.256783,0.26,0,1886,633,rainbow,4.6,453.83
56,3297,2,1,29,1,rainbowcie,0.153313,0.16,0,2480,171,rainbow,4.6,453.83
56,3298,2,1,30,1,rainbowcie,0.285073,0.285,1,4458,983,rainbow,4.6,453.83
56,3299,2,1,31,1,rainbowcie,0.343233,0.34,1,2427,451,rainbow,4.6,453.83
56,3300,2,1,32,1,rainbowcie,0.207527,0.21,1,6263,463,rainbow,4.6,453.83
56,3301,2,3,33,1,rainbowcie,0.182964,0.19,0,2261,107,rainbow,4.6,453.83
56,3302,2,1,34,1,rainbowcie,0.3173,0.32,1,3067,108,rainbow,4.6,453.83
56,3303,2,2,35,1,rainbowcie,0.321292,0.32,0,4466,91,rainbow,4.6,453.83
56,3304,2,2,36,1,rainbowcie,0.34337,0.34,1,2065,316,rainbow,4.6,453.83
56,3305,2,1,37,1,rainbowcie,0.221479,0.23,1,1821,362,rainbow,4.6,453.83
56,3306,2,2,38,1,rainbowcie,0.21024,0.21,0,1493,317,rainbow,4.6,453.83
56,3307,2,2,39,1,rainbowcie,0.303274,0.3,0,7006,186,rainbow,4.6,453.83
56,3308,2,2,40,1,rainbowcie,0.129123,0.13,0,2347,106,rainbow,4.6,453.83
56,3309,2,2,41,1,rainbowcie,0.165673,0.16,1,9695,104,rainbow,4.6,453.83
56,3310,2,1,42,1,rainbowcie,0.103052,0.11,0,6459,171,rainbow,4.6,453.83
56,3311,2,2,43,1,rainbowcie,0.113913,0.11,0,8204,433,rainbow,4.6,453.83
56,3312,2,2,44,1,rainbowcie,0.239424,0.23,1,2103,982,rainbow,4.6,453.83
56,3313,3,1,45,1,blues,0.277242,0.285,1,4407,123,singlehue,1.2,109.44
56,3314,3,1,46,1,blues,0.332254,0.34,0,2571,815,singlehue,1.2,109.44
56,3315,3,1,47,1,blues,0.161738,0.16,0,9845,457,singlehue,1.2,109.44
56,3316,3,1,48,1,blues,0.130437,0.13,0,8386,223,singlehue,1.2,109.44
56,3317,3,2,49,1,blues,0.154812,0.16,0,8591,271,singlehue,1.2,109.44
56,3318,3,1,50,1,blues,0.253185,0.26,0,1595,183,singlehue,1.2,109.44
56,3319,3,2,51,1,blues,0.292498,0.285,0,1813,482,singlehue,1.2,109.44
56,3320,3,3,52,1,blues,0.291162,0.285,1,2232,583,singlehue,1.2,109.44
56,3321,3,1,53,1,blues,0.198664,0.19,1,2013,203,singlehue,1.2,109.44
56,3322,3,1,54,1,blues,0.235355,0.23,1,2650,646,singlehue,1.2,109.44
56,3323,3,2,55,1,blues,0.258279,0.26,1,3504,138,singlehue,1.2,109.44
56,3324,3,2,56,1,blues,0.19535,0.19,0,2428,228,singlehue,1.2,109.44
56,3325,3,1,57,1,blues,0.31496,0.32,0,3983,710,singlehue,1.2,109.44
56,3326,3,1,58,1,blues,0.297929,0.3,0,2493,559,singlehue,1.2,109.44
56,3327,3,1,59,1,blues,0.102237,0.11,1,6089,108,singlehue,1.2,109.44
56,3328,3,2,60,1,blues,0.294328,0.3,0,8485,121,singlehue,1.2,109.44
56,3329,3,2,61,1,blues,0.311967,0.32,1,2809,2174,singlehue,1.2,109.44
56,3330,3,2,62,1,blues,0.340558,0.34,0,1893,718,singlehue,1.2,109.44
56,3331,3,2,63,1,blues,0.23072,0.23,0,11914,430,singlehue,1.2,109.44
56,3332,3,2,64,1,blues,0.138856,0.13,0,17366,454,singlehue,1.2,109.44
56,3333,3,1,65,1,blues,0.201095,0.21,0,1642,150,singlehue,1.2,109.44
56,3334,3,2,66,1,blues,0.119088,0.11,0,2445,287,singlehue,1.2,109.44
56,3335,4,1,67,1,greyred,0.214348,0.21,0,8404,196,divergent,2.57,163.89
56,3336,4,2,68,1,greyred,0.21112,0.21,1,1458,176,divergent,2.57,163.89
56,3337,4,1,69,1,greyred,0.113338,0.11,1,1130,463,divergent,2.57,163.89
56,3338,4,1,70,1,greyred,0.293365,0.3,0,1196,315,divergent,2.57,163.89
56,3339,4,3,71,1,greyred,0.216094,0.21,0,1861,360,divergent,2.57,163.89
56,3340,4,1,72,1,greyred,0.323711,0.32,0,2076,311,divergent,2.57,163.89
56,3341,4,2,73,1,greyred,0.298046,0.3,0,3431,191,divergent,2.57,163.89
56,3342,4,1,74,1,greyred,0.286727,0.285,0,1231,390,divergent,2.57,163.89
56,3343,4,2,75,1,greyred,0.279492,0.285,0,22014,697,divergent,2.57,163.89
56,3344,4,1,76,1,greyred,0.223251,0.23,1,62780,253,divergent,2.57,163.89
56,3345,4,1,77,1,greyred,0.332687,0.34,0,1457,127,divergent,2.57,163.89
56,3346,4,1,78,1,greyred,0.150709,0.16,0,22739,370,divergent,2.57,163.89
56,3347,4,1,79,1,greyred,0.128101,0.13,0,70901,326,divergent,2.57,163.89
56,3348,4,2,80,1,greyred,0.343738,0.34,0,1055,382,divergent,2.57,163.89
56,3349,4,1,81,1,greyred,0.265134,0.26,0,16212,156,divergent,2.57,163.89
56,3350,4,2,82,1,greyred,0.254039,0.26,0,40030,271,divergent,2.57,163.89
56,3351,4,1,83,1,greyred,0.187744,0.19,0,21944,420,divergent,2.57,163.89
56,3352,4,2,84,1,greyred,0.18793,0.19,0,2299,191,divergent,2.57,163.89
56,3353,4,2,85,1,greyred,0.220944,0.23,0,12748,220,divergent,2.57,163.89
56,3354,4,2,86,1,greyred,0.32201,0.32,0,922,626,divergent,2.57,163.89
56,3355,4,2,87,1,greyred,0.128377,0.13,0,3227,172,divergent,2.57,163.89
56,3356,4,2,88,1,greyred,0.158568,0.16,1,13067,127,divergent,2.57,163.89
57,3357,1,1,1,1,rainbowjet,0.222933,0.23,0,8635,474,rainbow,4.78,502
57,3358,1,1,2,1,rainbowjet,0.196745,0.19,1,18195,536,rainbow,4.78,502
57,3359,1,1,3,1,rainbowjet,0.15674,0.16,1,3378,114,rainbow,4.78,502
57,3360,1,1,4,1,rainbowjet,0.281669,0.285,1,9360,182,rainbow,4.78,502
57,3361,1,2,5,1,rainbowjet,0.158361,0.16,1,18335,215,rainbow,4.78,502
57,3362,1,1,6,1,rainbowjet,0.310178,0.32,1,2353,247,rainbow,4.78,502
57,3363,1,1,7,1,rainbowjet,0.295601,0.3,0,8668,412,rainbow,4.78,502
57,3364,1,1,8,1,rainbowjet,0.138634,0.13,0,2977,401,rainbow,4.78,502
57,3365,1,2,9,1,rainbowjet,0.180601,0.19,1,2584,134,rainbow,4.78,502
57,3366,1,1,10,1,rainbowjet,0.218859,0.21,0,9445,337,rainbow,4.78,502
57,3367,1,2,11,1,rainbowjet,0.290632,0.285,1,3760,1042,rainbow,4.78,502
57,3368,1,1,12,1,rainbowjet,0.333525,0.34,1,2173,88,rainbow,4.78,502
57,3369,1,2,13,1,rainbowjet,0.21078,0.21,0,3431,143,rainbow,4.78,502
57,3370,1,1,14,1,rainbowjet,0.264858,0.26,1,5687,263,rainbow,4.78,502
57,3371,1,2,15,1,rainbowjet,0.313112,0.32,1,2480,591,rainbow,4.78,502
57,3372,1,1,16,1,rainbowjet,0.116464,0.11,1,16412,119,rainbow,4.78,502
57,3373,1,2,17,1,rainbowjet,0.226096,0.23,1,8066,355,rainbow,4.78,502
57,3374,1,2,18,1,rainbowjet,0.256606,0.26,1,3105,776,rainbow,4.78,502
57,3375,1,2,19,1,rainbowjet,0.110513,0.11,1,2096,116,rainbow,4.78,502
57,3376,1,2,20,1,rainbowjet,0.129788,0.13,1,2095,487,rainbow,4.78,502
57,3377,1,2,21,1,rainbowjet,0.304263,0.3,1,3549,154,rainbow,4.78,502
57,3378,1,2,22,1,rainbowjet,0.337707,0.34,1,2383,886,rainbow,4.78,502
57,3379,2,1,23,1,blues,0.23499,0.23,1,3080,523,singlehue,1.2,109.44
57,3380,2,1,24,1,blues,0.15297,0.16,0,3425,731,singlehue,1.2,109.44
57,3381,2,2,25,1,blues,0.227891,0.23,1,8047,104,singlehue,1.2,109.44
57,3382,2,1,26,1,blues,0.313321,0.32,1,2128,428,singlehue,1.2,109.44
57,3383,2,2,27,1,blues,0.168235,0.16,1,3676,542,singlehue,1.2,109.44
57,3384,2,1,28,1,blues,0.211046,0.21,1,3518,158,singlehue,1.2,109.44
57,3385,2,1,29,1,blues,0.306831,0.3,1,3242,532,singlehue,1.2,109.44
57,3386,2,1,30,1,blues,0.28918,0.285,1,5964,110,singlehue,1.2,109.44
57,3387,2,1,31,1,blues,0.252318,0.26,1,6506,121,singlehue,1.2,109.44
57,3388,2,1,32,1,blues,0.118458,0.11,1,14913,531,singlehue,1.2,109.44
57,3389,2,1,33,1,blues,0.337704,0.34,1,2268,114,singlehue,1.2,109.44
57,3390,2,2,34,1,blues,0.25295,0.26,1,3661,166,singlehue,1.2,109.44
57,3391,2,2,35,1,blues,0.288523,0.285,1,2679,717,singlehue,1.2,109.44
57,3392,2,1,36,1,blues,0.18885,0.19,0,3470,438,singlehue,1.2,109.44
57,3393,2,3,37,1,blues,0.22851,0.23,1,3370,566,singlehue,1.2,109.44
57,3394,2,2,38,1,blues,0.291262,0.3,1,2318,491,singlehue,1.2,109.44
57,3395,2,2,39,1,blues,0.119263,0.11,0,1778,122,singlehue,1.2,109.44
57,3396,2,2,40,1,blues,0.214076,0.21,0,7692,192,singlehue,1.2,109.44
57,3397,2,1,41,1,blues,0.120251,0.13,1,2541,139,singlehue,1.2,109.44
57,3398,2,2,42,1,blues,0.324999,0.32,1,3809,318,singlehue,1.2,109.44
57,3399,2,2,43,1,blues,0.193357,0.19,1,7183,884,singlehue,1.2,109.44
57,3400,2,2,44,1,blues,0.34515,0.34,1,2078,98,singlehue,1.2,109.44
57,3401,3,1,45,1,spectral,0.135208,0.13,0,6972,617,divergent,3.99,218.97
57,3402,3,1,46,1,spectral,0.266766,0.26,1,6351,1596,divergent,3.99,218.97
57,3403,3,1,47,1,spectral,0.283832,0.285,1,2571,471,divergent,3.99,218.97
57,3404,3,1,48,1,spectral,0.20643,0.21,1,2924,1301,divergent,3.99,218.97
57,3405,3,1,49,1,spectral,0.300111,0.3,1,6497,178,divergent,3.99,218.97
57,3406,3,1,50,1,spectral,0.331521,0.34,1,3085,1106,divergent,3.99,218.97
57,3407,3,1,51,1,spectral,0.101858,0.11,1,13077,193,divergent,3.99,218.97
57,3408,3,1,52,1,spectral,0.319809,0.32,1,1575,1132,divergent,3.99,218.97
57,3409,3,1,53,1,spectral,0.166787,0.16,1,3221,1814,divergent,3.99,218.97
57,3410,3,1,54,1,spectral,0.182639,0.19,1,12838,378,divergent,3.99,218.97
57,3411,3,2,55,1,spectral,0.290343,0.285,1,6621,143,divergent,3.99,218.97
57,3412,3,2,56,1,spectral,0.20294,0.21,0,24027,879,divergent,3.99,218.97
57,3413,3,2,57,1,spectral,0.10882,0.11,1,3353,117,divergent,3.99,218.97
57,3414,3,2,58,1,spectral,0.333846,0.34,1,2035,321,divergent,3.99,218.97
57,3415,3,2,59,1,spectral,0.190825,0.19,1,11664,154,divergent,3.99,218.97
57,3416,3,2,60,1,spectral,0.150772,0.16,1,23901,546,divergent,3.99,218.97
57,3417,3,2,61,1,spectral,0.32628,0.32,1,4325,177,divergent,3.99,218.97
57,3418,3,2,62,1,spectral,0.306465,0.3,1,3702,1257,divergent,3.99,218.97
57,3419,3,2,63,1,spectral,0.137093,0.13,1,3717,256,divergent,3.99,218.97
57,3420,3,1,64,1,spectral,0.234754,0.23,1,5050,922,divergent,3.99,218.97
57,3421,3,2,65,1,spectral,0.258755,0.26,1,5403,220,divergent,3.99,218.97
57,3422,3,3,66,1,spectral,0.13292,0.13,1,31681,156,divergent,3.99,218.97
57,3423,4,1,67,1,plasma,0.221859,0.23,0,7246,262,multihue,3.44,224.82
57,3424,4,1,68,1,plasma,0.21638,0.21,0,13675,357,multihue,3.44,224.82
57,3425,4,1,69,1,plasma,0.324992,0.32,1,5531,1009,multihue,3.44,224.82
57,3426,4,1,70,1,plasma,0.122659,0.13,1,5224,807,multihue,3.44,224.82
57,3427,4,1,71,1,plasma,0.19263,0.19,0,21571,281,multihue,3.44,224.82
57,3428,4,2,72,1,plasma,0.31916,0.32,1,4533,639,multihue,3.44,224.82
57,3429,4,1,73,1,plasma,0.294661,0.3,1,15488,1692,multihue,3.44,224.82
57,3430,4,1,74,1,plasma,0.157294,0.16,1,8454,320,multihue,3.44,224.82
57,3431,4,2,75,1,plasma,0.213633,0.21,0,4998,314,multihue,3.44,224.82
57,3432,4,1,76,1,plasma,0.291615,0.285,1,1914,276,multihue,3.44,224.82
57,3433,4,1,77,1,plasma,0.334938,0.34,1,3873,274,multihue,3.44,224.82
57,3434,4,2,78,1,plasma,0.307289,0.3,1,1260,607,multihue,3.44,224.82
57,3435,4,1,79,1,plasma,0.101369,0.11,1,14466,423,multihue,3.44,224.82
57,3436,4,1,80,1,plasma,0.258004,0.26,1,6614,232,multihue,3.44,224.82
57,3437,4,2,81,1,plasma,0.263063,0.26,1,4028,194,multihue,3.44,224.82
57,3438,4,2,82,1,plasma,0.225783,0.23,1,10773,246,multihue,3.44,224.82
57,3439,4,2,83,1,plasma,0.139495,0.13,0,2664,269,multihue,3.44,224.82
57,3440,4,2,84,1,plasma,0.344238,0.34,1,1231,459,multihue,3.44,224.82
57,3441,4,2,85,1,plasma,0.290913,0.285,1,3603,436,multihue,3.44,224.82
57,3442,4,2,86,1,plasma,0.116097,0.11,0,10251,100,multihue,3.44,224.82
57,3443,4,2,87,1,plasma,0.152476,0.16,1,8551,258,multihue,3.44,224.82
57,3444,4,2,88,1,plasma,0.186424,0.19,1,11989,122,multihue,3.44,224.82
58,3445,1,1,1,1,rainbowjet,0.127094,0.13,0,4402,555,rainbow,4.78,502
58,3446,1,1,2,1,rainbowjet,0.26889,0.26,1,6117,120,rainbow,4.78,502
58,3447,1,1,3,1,rainbowjet,0.115459,0.11,0,4874,58,rainbow,4.78,502
58,3448,1,2,4,1,rainbowjet,0.253347,0.26,1,3790,272,rainbow,4.78,502
58,3449,1,1,5,1,rainbowjet,0.158828,0.16,0,2623,129,rainbow,4.78,502
58,3450,1,1,6,1,rainbowjet,0.314073,0.32,1,2493,562,rainbow,4.78,502
58,3451,1,1,7,1,rainbowjet,0.212942,0.21,0,4975,71,rainbow,4.78,502
58,3452,1,1,8,1,rainbowjet,0.331151,0.34,0,1842,593,rainbow,4.78,502
58,3453,1,1,9,1,rainbowjet,0.275813,0.285,1,2165,102,rainbow,4.78,502
58,3454,1,1,10,1,rainbowjet,0.193595,0.19,0,4348,124,rainbow,4.78,502
58,3455,1,1,11,1,rainbowjet,0.23511,0.23,1,10691,308,rainbow,4.78,502
58,3456,1,2,12,1,rainbowjet,0.238072,0.23,1,3519,68,rainbow,4.78,502
58,3457,1,2,13,1,rainbowjet,0.202633,0.21,1,3212,257,rainbow,4.78,502
58,3458,1,2,14,1,rainbowjet,0.120383,0.13,0,10678,178,rainbow,4.78,502
58,3459,1,1,15,1,rainbowjet,0.307536,0.3,1,6184,361,rainbow,4.78,502
58,3460,1,2,16,1,rainbowjet,0.191261,0.19,1,4317,164,rainbow,4.78,502
58,3461,1,2,17,1,rainbowjet,0.332833,0.34,1,4904,125,rainbow,4.78,502
58,3462,1,2,18,1,rainbowjet,0.165353,0.16,1,4722,73,rainbow,4.78,502
58,3463,1,2,19,1,rainbowjet,0.302888,0.3,1,6516,501,rainbow,4.78,502
58,3464,1,2,20,1,rainbowjet,0.283301,0.285,1,2342,60,rainbow,4.78,502
58,3465,1,2,21,1,rainbowjet,0.325015,0.32,1,1261,52,rainbow,4.78,502
58,3466,1,2,22,1,rainbowjet,0.102066,0.11,0,2853,286,rainbow,4.78,502
58,3467,2,1,23,1,plasma,0.138346,0.13,0,2173,83,multihue,3.44,224.82
58,3468,2,1,24,1,plasma,0.308135,0.3,1,2544,599,multihue,3.44,224.82
58,3469,2,1,25,1,plasma,0.290873,0.285,0,1478,268,multihue,3.44,224.82
58,3470,2,1,26,1,plasma,0.320455,0.32,1,1292,259,multihue,3.44,224.82
58,3471,2,1,27,1,plasma,0.207586,0.21,1,2568,239,multihue,3.44,224.82
58,3472,2,2,28,1,plasma,0.213965,0.21,0,4308,154,multihue,3.44,224.82
58,3473,2,1,29,1,plasma,0.166011,0.16,1,4659,119,multihue,3.44,224.82
58,3474,2,1,30,1,plasma,0.22302,0.23,0,2956,196,multihue,3.44,224.82
58,3475,2,1,31,1,plasma,0.253156,0.26,1,2005,189,multihue,3.44,224.82
58,3476,2,1,32,1,plasma,0.194194,0.19,0,2626,323,multihue,3.44,224.82
58,3477,2,1,33,1,plasma,0.10004,0.11,0,3498,61,multihue,3.44,224.82
58,3478,2,2,34,1,plasma,0.324644,0.32,1,1506,144,multihue,3.44,224.82
58,3479,2,2,35,1,plasma,0.250413,0.26,1,4169,60,multihue,3.44,224.82
58,3480,2,1,36,1,plasma,0.335153,0.34,0,5349,492,multihue,3.44,224.82
58,3481,2,2,37,1,plasma,0.132739,0.13,0,4599,189,multihue,3.44,224.82
58,3482,2,2,38,1,plasma,0.301919,0.3,1,2195,187,multihue,3.44,224.82
58,3483,2,2,39,1,plasma,0.225557,0.23,0,2706,367,multihue,3.44,224.82
58,3484,2,2,40,1,plasma,0.34631,0.34,0,1829,330,multihue,3.44,224.82
58,3485,2,2,41,1,plasma,0.162001,0.16,1,5101,144,multihue,3.44,224.82
58,3486,2,2,42,1,plasma,0.102921,0.11,0,4329,128,multihue,3.44,224.82
58,3487,2,2,43,1,plasma,0.286976,0.285,0,1424,188,multihue,3.44,224.82
58,3488,2,3,44,1,plasma,0.138749,0.13,1,2292,53,multihue,3.44,224.82
58,3489,3,1,45,1,blues,0.198579,0.19,0,2663,490,singlehue,1.2,109.44
58,3490,3,1,46,1,blues,0.319962,0.32,1,2395,182,singlehue,1.2,109.44
58,3491,3,1,47,1,blues,0.163102,0.16,0,1688,98,singlehue,1.2,109.44
58,3492,3,2,48,1,blues,0.194169,0.19,0,3025,112,singlehue,1.2,109.44
58,3493,3,1,49,1,blues,0.204513,0.21,0,2171,158,singlehue,1.2,109.44
58,3494,3,1,50,1,blues,0.340657,0.34,1,1963,103,singlehue,1.2,109.44
58,3495,3,1,51,1,blues,0.114591,0.11,0,5136,156,singlehue,1.2,109.44
58,3496,3,1,52,1,blues,0.134107,0.13,0,4457,128,singlehue,1.2,109.44
58,3497,3,1,53,1,blues,0.305993,0.3,1,2216,92,singlehue,1.2,109.44
58,3498,3,1,54,1,blues,0.292452,0.285,0,2788,68,singlehue,1.2,109.44
58,3499,3,2,55,1,blues,0.204071,0.21,1,2267,75,singlehue,1.2,109.44
58,3500,3,2,56,1,blues,0.283262,0.285,0,4775,82,singlehue,1.2,109.44
58,3501,3,2,57,1,blues,0.156552,0.16,0,1515,68,singlehue,1.2,109.44
58,3502,3,1,58,1,blues,0.227701,0.23,1,2468,89,singlehue,1.2,109.44
58,3503,3,2,59,1,blues,0.113385,0.11,0,3415,149,singlehue,1.2,109.44
58,3504,3,2,60,1,blues,0.292917,0.3,0,5082,91,singlehue,1.2,109.44
58,3505,3,2,61,1,blues,0.234555,0.23,1,4568,187,singlehue,1.2,109.44
58,3506,3,2,62,1,blues,0.12496,0.13,0,4531,122,singlehue,1.2,109.44
58,3507,3,2,63,1,blues,0.338311,0.34,0,2068,509,singlehue,1.2,109.44
58,3508,3,1,64,1,blues,0.259704,0.26,0,5057,67,singlehue,1.2,109.44
58,3509,3,2,65,1,blues,0.31598,0.32,0,3099,488,singlehue,1.2,109.44
58,3510,3,3,66,1,blues,0.195818,0.19,0,5071,63,singlehue,1.2,109.44
58,3511,4,1,67,1,coolwarm,0.252576,0.26,1,1770,242,divergent,2.42,231.55
58,3512,4,1,68,1,coolwarm,0.220106,0.23,0,3857,131,divergent,2.42,231.55
58,3513,4,2,69,1,coolwarm,0.220238,0.23,1,1757,245,divergent,2.42,231.55
58,3514,4,1,70,1,coolwarm,0.135705,0.13,0,1396,311,divergent,2.42,231.55
58,3515,4,1,71,1,coolwarm,0.213212,0.21,0,1277,570,divergent,2.42,231.55
58,3516,4,1,72,1,coolwarm,0.15486,0.16,1,2791,68,divergent,2.42,231.55
58,3517,4,2,73,1,coolwarm,0.209391,0.21,1,2918,304,divergent,2.42,231.55
58,3518,4,1,74,1,coolwarm,0.329767,0.32,1,2705,52,divergent,2.42,231.55
58,3519,4,1,75,1,coolwarm,0.342705,0.34,0,2309,179,divergent,2.42,231.55
58,3520,4,1,76,1,coolwarm,0.119453,0.11,0,2196,69,divergent,2.42,231.55
58,3521,4,1,77,1,coolwarm,0.183199,0.19,0,4124,59,divergent,2.42,231.55
58,3522,4,1,78,1,coolwarm,0.276021,0.285,1,1846,227,divergent,2.42,231.55
58,3523,4,2,79,1,coolwarm,0.311109,0.32,0,1788,67,divergent,2.42,231.55
58,3524,4,1,80,1,coolwarm,0.305449,0.3,1,3770,1189,divergent,2.42,231.55
58,3525,4,2,81,1,coolwarm,0.160191,0.16,1,3698,164,divergent,2.42,231.55
58,3526,4,2,82,1,coolwarm,0.301561,0.3,1,1953,259,divergent,2.42,231.55
58,3527,4,2,83,1,coolwarm,0.259713,0.26,0,1764,184,divergent,2.42,231.55
58,3528,4,2,84,1,coolwarm,0.330102,0.34,1,4319,51,divergent,2.42,231.55
58,3529,4,2,85,1,coolwarm,0.101491,0.11,1,2537,52,divergent,2.42,231.55
58,3530,4,3,86,1,coolwarm,0.266671,0.26,0,2109,165,divergent,2.42,231.55
58,3531,4,2,87,1,coolwarm,0.193733,0.19,1,1764,108,divergent,2.42,231.55
58,3532,4,2,88,1,coolwarm,0.135508,0.13,0,3717,59,divergent,2.42,231.55
64,3533,1,1,1,1,plasma,0.321058,0.32,1,3177,222,multihue,3.44,224.82
64,3534,1,1,2,1,plasma,0.109397,0.11,0,3285,188,multihue,3.44,224.82
64,3535,1,1,3,1,plasma,0.307172,0.3,1,4751,463,multihue,3.44,224.82
64,3536,1,1,4,1,plasma,0.250452,0.26,1,3623,111,multihue,3.44,224.82
64,3537,1,1,5,1,plasma,0.206748,0.21,1,2092,98,multihue,3.44,224.82
64,3538,1,1,6,1,plasma,0.282883,0.285,1,3903,385,multihue,3.44,224.82
